timestamp,ax,ay,az
2026-07-08 09:37:05.567658+00:00,-0.0117,-0.9243,-0.0151
2026-07-08 09:37:05.568245+00:00,-0.1557,-1.0258,0.0039
2026-07-08 09:37:05.568559+00:00,-0.1669,-1.1283,0.0468
2026-07-08 09:37:05.568904+00:00,-0.1122,-0.9209,-0.022
2026-07-08 09:37:05.569223+00:00,-0.1708,-1.1117,0.0517
2026-07-08 09:37:05.631353+00:00,0.0088,-0.9087,-0.039
2026-07-08 09:37:05.631645+00:00,-0.0883,-1.0414,0.0249
2026-07-08 09:37:05.631804+00:00,-0.0752,-0.9394,-0.0151
2026-07-08 09:37:05.632697+00:00,-0.1449,-1.0277,0.0063
2026-07-08 09:37:05.632878+00:00,-0.1786,-0.997,0.103
2026-07-08 09:37:05.632990+00:00,-0.0473,-0.9916,-0.021
2026-07-08 09:37:05.694461+00:00,-0.0337,-1.1058,0.0488
2026-07-08 09:37:05.695048+00:00,0.0054,-0.9038,-0.0332
2026-07-08 09:37:05.695398+00:00,-0.082,-1.0594,0.0532
2026-07-08 09:37:05.695693+00:00,-0.0756,-0.9331,-0.0181
2026-07-08 09:37:05.695927+00:00,-0.0903,-1.0292,0.0112
2026-07-08 09:37:05.696138+00:00,-0.1684,-0.9931,-0.0268
2026-07-08 09:37:05.696406+00:00,-0.0561,-1.0024,0.001
2026-07-08 09:37:05.755475+00:00,-0.0205,-1.0565,0.0503
2026-07-08 09:37:05.755766+00:00,-0.1161,-0.9091,-0.0361
2026-07-08 09:37:05.755948+00:00,-0.0756,-1.0653,0.0547
2026-07-08 09:37:05.756030+00:00,-0.0771,-0.9296,-0.0322
2026-07-08 09:37:05.756098+00:00,-0.0883,-0.9955,0.0137
2026-07-08 09:37:05.756163+00:00,-0.0961,-0.9872,-0.0264
2026-07-08 09:37:05.804497+00:00,-0.0161,-0.9945,-0.001
2026-07-08 09:37:05.804840+00:00,-0.0156,-1.0575,0.0517
2026-07-08 09:37:05.805027+00:00,-0.124,-1.0048,-0.0068
2026-07-08 09:37:05.805268+00:00,-0.0776,-1.1512,0.0566
2026-07-08 09:37:05.805376+00:00,-0.0586,-0.9306,-0.0376
2026-07-08 09:37:05.851487+00:00,-0.0717,-1.0014,0.0181
2026-07-08 09:37:05.851964+00:00,-0.0844,-0.873,-0.0278
2026-07-08 09:37:05.852244+00:00,-0.1649,-1.0297,-0.0044
2026-07-08 09:37:05.852368+00:00,-0.0454,-1.0697,0.0503
2026-07-08 09:37:05.903265+00:00,-0.1386,-0.9999,-0.021
2026-07-08 09:37:05.903757+00:00,-0.0913,-1.1561,0.0517
2026-07-08 09:37:05.903989+00:00,-0.0317,-0.9184,-0.0425
2026-07-08 09:37:05.904115+00:00,-0.1708,-1.0106,0.0361
2026-07-08 09:37:05.904204+00:00,-0.062,-0.8755,-0.0205
2026-07-08 09:37:05.964368+00:00,-0.1791,-1.0287,-0.0142
2026-07-08 09:37:05.964703+00:00,-0.08,-0.9789,0.0512
2026-07-08 09:37:05.965212+00:00,-0.0678,-0.9736,-0.039
2026-07-08 09:37:05.965603+00:00,-0.1074,-1.1429,0.0478
2026-07-08 09:37:05.966036+00:00,0.0044,-0.9077,-0.0146
2026-07-08 09:37:05.966731+00:00,-0.1581,-1.0736,0.0425
2026-07-08 09:37:05.967122+00:00,-0.0615,-0.9267,-0.0107
2026-07-08 09:37:06.010736+00:00,-0.1015,-1.0248,-0.0205
2026-07-08 09:37:06.011184+00:00,-0.1225,-0.9902,0.0005
2026-07-08 09:37:06.011726+00:00,-0.0361,-0.9882,0.0034
2026-07-08 09:37:06.012099+00:00,-0.0722,-1.0204,0.0478
2026-07-08 09:37:06.061226+00:00,-0.0922,-0.913,-0.0166
2026-07-08 09:37:06.061951+00:00,-0.1303,-1.0712,0.0444
2026-07-08 09:37:06.062448+00:00,-0.0659,-0.9374,-0.0195
2026-07-08 09:37:06.063146+00:00,-0.1044,-1.0209,-0.0068
2026-07-08 09:37:06.064047+00:00,-0.1049,-0.9897,-0.0156
2026-07-08 09:37:06.106236+00:00,-0.0327,-0.9848,-0.0059
2026-07-08 09:37:06.106775+00:00,-0.0405,-1.038,0.0483
2026-07-08 09:37:06.107130+00:00,-0.1069,-1.018,-0.0259
2026-07-08 09:37:06.107433+00:00,-0.0395,-1.018,0.0483
2026-07-08 09:37:06.107664+00:00,-0.08,-0.9316,-0.0259
2026-07-08 09:37:06.160098+00:00,-0.0888,-0.9999,-0.0088
2026-07-08 09:37:06.160497+00:00,-0.0971,-0.8691,-0.0415
2026-07-08 09:37:06.161119+00:00,-0.1459,-1.0321,-0.0005
2026-07-08 09:37:06.161512+00:00,-0.0249,-1.056,0.0503
2026-07-08 09:37:06.162039+00:00,-0.1318,-0.9994,-0.0122
2026-07-08 09:37:06.211540+00:00,-0.0844,-1.1536,0.0512
2026-07-08 09:37:06.211961+00:00,-0.0434,-0.913,-0.0439
2026-07-08 09:37:06.212170+00:00,-0.1752,-1.0058,0.0303
2026-07-08 09:37:06.212485+00:00,-0.0625,-0.8804,-0.0215
2026-07-08 09:37:06.212603+00:00,-0.1767,-1.0287,-0.0156
2026-07-08 09:37:06.212699+00:00,-0.0805,-0.9828,0.0527
2026-07-08 09:37:06.260821+00:00,-0.0639,-0.9697,-0.0464
2026-07-08 09:37:06.261099+00:00,-0.1337,-1.1395,0.0464
2026-07-08 09:37:06.261289+00:00,0.0102,-0.9135,-0.0112
2026-07-08 09:37:06.261584+00:00,-0.1576,-1.078,0.0464
2026-07-08 09:37:06.261723+00:00,-0.06,-0.9418,-0.0107
2026-07-08 09:37:06.309977+00:00,-0.2245,-1.0199,-0.0166
2026-07-08 09:37:06.310485+00:00,-0.1435,-0.9858,-0.0068
2026-07-08 09:37:06.310846+00:00,-0.0288,-0.976,-0.04
2026-07-08 09:37:06.311229+00:00,-0.0571,-1.0185,0.0522
2026-07-08 09:37:06.373304+00:00,-0.0961,-0.9213,-0.0156
2026-07-08 09:37:06.373618+00:00,-0.1142,-1.0795,0.0508
2026-07-08 09:37:06.373757+00:00,-0.0693,-0.9536,-0.0107
2026-07-08 09:37:06.373976+00:00,-0.0966,-1.0141,0.0015
2026-07-08 09:37:06.374337+00:00,-0.0971,-0.9804,-0.0264
2026-07-08 09:37:06.374598+00:00,-0.0386,-0.9726,-0.0073
2026-07-08 09:37:06.374852+00:00,-0.0239,-1.0399,0.0444
2026-07-08 09:37:06.421655+00:00,-0.1254,-1.0009,-0.0303
2026-07-08 09:37:06.422224+00:00,-0.0717,-1.0858,0.0571
2026-07-08 09:37:06.422559+00:00,-0.0776,-0.935,-0.0361
2026-07-08 09:37:06.422833+00:00,-0.0722,-1.018,0.0264
2026-07-08 09:37:06.470589+00:00,-0.0727,-0.8774,-0.0195
2026-07-08 09:37:06.471028+00:00,-0.1732,-0.9077,-0.0073
2026-07-08 09:37:06.471266+00:00,-0.0688,-1.0702,0.0488
2026-07-08 09:37:06.471511+00:00,-0.1518,-0.9745,-0.04
2026-07-08 09:37:06.471825+00:00,-0.124,-1.1458,0.0303
2026-07-08 09:37:06.533867+00:00,0.0059,-0.915,-0.0429
2026-07-08 09:37:06.534507+00:00,-0.1625,-1.0282,0.0488
2026-07-08 09:37:06.534671+00:00,-0.0303,-0.8974,-0.0137
2026-07-08 09:37:06.535143+00:00,-0.1791,-1.0189,-0.0161
2026-07-08 09:37:06.536018+00:00,-0.1357,-0.9794,0.0517
2026-07-08 09:37:06.536586+00:00,-0.0259,-0.9462,-0.0381
2026-07-08 09:37:06.536883+00:00,-0.1591,-1.1326,0.0468
2026-07-08 09:37:06.584376+00:00,0.02,-0.9223,-0.019
2026-07-08 09:37:06.584772+00:00,-0.1118,-1.0814,0.0342
2026-07-08 09:37:06.585096+00:00,-0.0742,-0.9233,-0.0171
2026-07-08 09:37:06.585312+00:00,-0.1518,-1.0146,0.0034
2026-07-08 09:37:06.585500+00:00,-0.1771,-0.9823,-0.0259
2026-07-08 09:37:06.647042+00:00,-0.039,-0.9701,-0.0195
2026-07-08 09:37:06.647462+00:00,-0.0181,-1.1141,0.0537
2026-07-08 09:37:06.648045+00:00,-0.0024,-0.9145,-0.0317
2026-07-08 09:37:06.648439+00:00,-0.0854,-1.0931,0.0625
2026-07-08 09:37:06.648970+00:00,-0.083,-0.9448,-0.0327
2026-07-08 09:37:06.649526+00:00,-0.0703,-1.0209,0.0151
2026-07-08 09:37:06.707571+00:00,-0.081,-0.976,-0.0278
2026-07-08 09:37:06.707943+00:00,-0.0688,-0.974,-0.0102
2026-07-08 09:37:06.708307+00:00,-0.0054,-1.059,0.0459
2026-07-08 09:37:06.708615+00:00,-0.1449,-0.9794,-0.0361
2026-07-08 09:37:06.708897+00:00,-0.1181,-1.0785,0.0444
2026-07-08 09:37:06.709204+00:00,-0.0927,-0.9179,-0.0429
2026-07-08 09:37:06.756421+00:00,-0.061,-1.0209,0.0478
2026-07-08 09:37:06.757053+00:00,-0.041,-0.8857,0.0107
2026-07-08 09:37:06.757433+00:00,-0.1806,-0.9814,-0.0073
2026-07-08 09:37:06.757735+00:00,-0.0112,-1.099,0.0537
2026-07-08 09:37:06.758087+00:00,-0.1508,-0.9653,-0.0405
2026-07-08 09:37:06.809631+00:00,-0.1523,-1.1453,0.0049
2026-07-08 09:37:06.810260+00:00,0.0132,-0.8877,-0.0483
2026-07-08 09:37:06.810570+00:00,-0.0844,-1.0253,0.0429
2026-07-08 09:37:06.810898+00:00,-0.0166,-0.8999,-0.0161
2026-07-08 09:37:06.811139+00:00,-0.1703,-1.0175,0.0015
2026-07-08 09:37:06.873144+00:00,-0.1625,-0.9941,0.0517
2026-07-08 09:37:06.873415+00:00,-0.0278,-0.9443,-0.0278
2026-07-08 09:37:06.873640+00:00,-0.1674,-1.1312,0.0532
2026-07-08 09:37:06.874038+00:00,0.0132,-0.9165,-0.0224
2026-07-08 09:37:06.874834+00:00,-0.1,-1.0721,0.0229
2026-07-08 09:37:06.875197+00:00,-0.0727,-0.9292,-0.0215
2026-07-08 09:37:06.876436+00:00,-0.1381,-1.0165,0.0093
2026-07-08 09:37:06.932568+00:00,-0.1747,-0.9838,-0.0288
2026-07-08 09:37:06.933190+00:00,-0.0498,-0.9892,-0.0137
2026-07-08 09:37:06.933478+00:00,-0.0142,-1.1043,0.0527
2026-07-08 09:37:06.933789+00:00,-0.0132,-0.9121,-0.0366
2026-07-08 09:37:06.934038+00:00,-0.08,-1.0838,0.06
2026-07-08 09:37:06.934322+00:00,-0.0849,-0.9316,-0.0093
2026-07-08 09:37:06.996511+00:00,-0.0698,-1.0082,0.0181
2026-07-08 09:37:06.996903+00:00,-0.1903,-0.9814,-0.0161
2026-07-08 09:37:06.997606+00:00,-0.0722,-0.976,-0.0068
2026-07-08 09:37:06.998029+00:00,-0.0034,-1.0687,0.0468
2026-07-08 09:37:06.998337+00:00,-0.1542,-0.9677,-0.0327
2026-07-08 09:37:06.998714+00:00,-0.0034,-1.0634,0.0307
2026-07-08 09:37:07.045949+00:00,-0.1,-0.9145,-0.041
2026-07-08 09:37:07.046213+00:00,-0.0634,-1.0272,0.0508
2026-07-08 09:37:07.046541+00:00,-0.0288,-0.9013,0.0215
2026-07-08 09:37:07.046997+00:00,-0.1776,-0.9784,-0.0059
2026-07-08 09:37:07.047245+00:00,-0.0117,-1.0887,0.0517
2026-07-08 09:37:07.094950+00:00,-0.1513,-0.9467,-0.0439
2026-07-08 09:37:07.095220+00:00,-0.163,-1.1317,-0.0054
2026-07-08 09:37:07.095487+00:00,0.0254,-0.8926,-0.0454
2026-07-08 09:37:07.095825+00:00,-0.0947,-1.039,0.0395
2026-07-08 09:37:07.096161+00:00,-0.0127,-0.916,-0.0176
2026-07-08 09:37:07.156135+00:00,-0.1552,-1.0121,-0.001
2026-07-08 09:37:07.156815+00:00,-0.1693,-1.1278,0.0464
2026-07-08 09:37:07.157183+00:00,-0.1093,-0.9267,-0.0185
2026-07-08 09:37:07.157417+00:00,-0.1728,-1.1195,0.0527
2026-07-08 09:37:07.157628+00:00,0.0024,-0.9194,-0.0283
2026-07-08 09:37:07.210629+00:00,-0.0849,-1.0365,0.0098
2026-07-08 09:37:07.211043+00:00,-0.081,-0.9453,-0.0166
2026-07-08 09:37:07.211289+00:00,-0.1132,-1.0043,0.0137
2026-07-08 09:37:07.211467+00:00,-0.1527,-0.9745,0.0937
2026-07-08 09:37:07.211654+00:00,-0.0615,-0.9697,-0.0137
2026-07-08 09:37:07.212001+00:00,-0.0102,-1.0956,0.0493
2026-07-08 09:37:07.262301+00:00,-0.0386,-0.9262,-0.0342
2026-07-08 09:37:07.262914+00:00,-0.0898,-1.0775,0.0473
2026-07-08 09:37:07.263357+00:00,-0.0908,-0.9272,-0.0034
2026-07-08 09:37:07.263672+00:00,-0.062,-0.996,0.0112
2026-07-08 09:37:07.264026+00:00,-0.0956,-1.0048,0.0107
2026-07-08 09:37:07.264560+00:00,-0.0742,-0.9843,-0.0083
2026-07-08 09:37:07.325069+00:00,-0.0078,-1.0838,0.04
2026-07-08 09:37:07.325618+00:00,-0.1498,-0.9443,-0.019
2026-07-08 09:37:07.325983+00:00,-0.0264,-1.0482,0.0049
2026-07-08 09:37:07.326397+00:00,-0.1,-0.8979,-0.0454
2026-07-08 09:37:07.326647+00:00,-0.0864,-1.0302,-0.0063
2026-07-08 09:37:07.326931+00:00,-0.0151,-0.9067,0.0415
2026-07-08 09:37:07.373489+00:00,-0.1684,-1.0009,0.0039
2026-07-08 09:37:07.373914+00:00,-0.0249,-1.1248,0.0532
2026-07-08 09:37:07.374218+00:00,-0.1259,-0.937,-0.0244
2026-07-08 09:37:07.374676+00:00,-0.1703,-1.1248,-0.0171
2026-07-08 09:37:07.374871+00:00,0.0068,-0.875,-0.0478
2026-07-08 09:37:07.421146+00:00,-0.1327,-1.0355,0.0205
2026-07-08 09:37:07.421605+00:00,-0.0122,-0.9331,-0.0176
2026-07-08 09:37:07.421840+00:00,-0.1362,-1.0116,0.0015
2026-07-08 09:37:07.422001+00:00,-0.1713,-1.1488,0.0508
2026-07-08 09:37:07.470559+00:00,-0.0752,-0.9189,-0.0166
2026-07-08 09:37:07.470981+00:00,-0.1703,-1.099,0.0522
2026-07-08 09:37:07.471617+00:00,-0.0229,-0.9135,-0.0322
2026-07-08 09:37:07.472042+00:00,-0.0791,-1.035,-0.0029
2026-07-08 09:37:07.472442+00:00,-0.0459,-0.9706,-0.0102
2026-07-08 09:37:07.531790+00:00,-0.0839,-1.0199,0.0224
2026-07-08 09:37:07.532217+00:00,-0.1444,-0.9965,0.0522
2026-07-08 09:37:07.532447+00:00,-0.0781,-0.9916,-0.0137
2026-07-08 09:37:07.532727+00:00,-0.0073,-1.0765,0.0434
2026-07-08 09:37:07.533049+00:00,-0.0508,-0.9174,-0.039
2026-07-08 09:37:07.533242+00:00,-0.0922,-1.039,0.0254
2026-07-08 09:37:07.533469+00:00,-0.0952,-0.9033,0.002
2026-07-08 09:37:07.581391+00:00,-0.0688,-1.0146,0.0156
2026-07-08 09:37:07.581942+00:00,-0.0922,-1.0209,0.0244
2026-07-08 09:37:07.582267+00:00,-0.0874,-1.0004,0.0034
2026-07-08 09:37:07.582502+00:00,-0.0078,-1.1073,0.0376
2026-07-08 09:37:07.628588+00:00,-0.1371,-0.9287,-0.0249
2026-07-08 09:37:07.628950+00:00,-0.0956,-1.0253,-0.0044
2026-07-08 09:37:07.629232+00:00,-0.1049,-0.8862,-0.0522
2026-07-08 09:37:07.629456+00:00,-0.0898,-1.0199,0.0
2026-07-08 09:37:07.629651+00:00,-0.0181,-1.0321,0.0444
2026-07-08 09:37:07.677578+00:00,-0.0913,-1.0136,0.0039
2026-07-08 09:37:07.678180+00:00,-0.019,-1.1253,0.0532
2026-07-08 09:37:07.678604+00:00,-0.1303,-0.9418,-0.0112
2026-07-08 09:37:07.678919+00:00,-0.1659,-1.119,-0.02
2026-07-08 09:37:07.679271+00:00,0.0122,-0.8804,-0.0464
2026-07-08 09:37:07.725178+00:00,-0.121,-1.0341,0.0268
2026-07-08 09:37:07.725642+00:00,-0.0107,-0.936,0.1088
2026-07-08 09:37:07.725965+00:00,-0.1498,-1.0253,0.0093
2026-07-08 09:37:07.726450+00:00,-0.1732,-1.1414,0.0488
2026-07-08 09:37:07.726954+00:00,-0.0976,-0.9209,-0.0181
2026-07-08 09:37:07.795582+00:00,-0.1703,-1.1087,0.0517
2026-07-08 09:37:07.796254+00:00,0.0,-0.9048,-0.041
2026-07-08 09:37:07.796635+00:00,-0.0791,-1.0311,0.0107
2026-07-08 09:37:07.796885+00:00,-0.022,-0.9516,-0.0132
2026-07-08 09:37:07.797208+00:00,-0.123,-1.0272,0.0151
2026-07-08 09:37:07.797524+00:00,-0.162,-0.9994,0.0478
2026-07-08 09:37:07.797927+00:00,-0.06,-0.8984,-0.02
2026-07-08 09:37:07.863930+00:00,-0.1718,-1.0799,0.0473
2026-07-08 09:37:07.864300+00:00,-0.0337,-0.9028,-0.0381
2026-07-08 09:37:07.864711+00:00,-0.0761,-1.0609,-0.0039
2026-07-08 09:37:07.865281+00:00,-0.0844,-0.9301,-0.0068
2026-07-08 09:37:07.865564+00:00,-0.0717,-1.0233,0.0215
2026-07-08 09:37:07.865812+00:00,-0.1293,-0.9902,-0.0151
2026-07-08 09:37:07.916935+00:00,-0.0761,-0.9926,-0.0166
2026-07-08 09:37:07.917214+00:00,-0.0073,-1.0721,0.041
2026-07-08 09:37:07.917319+00:00,-0.1386,-0.9228,-0.039
2026-07-08 09:37:07.917394+00:00,-0.0913,-1.0497,0.0283
2026-07-08 09:37:07.917505+00:00,-0.0986,-0.9189,-0.041
2026-07-08 09:37:07.917591+00:00,-0.0708,-1.0199,0.0142
2026-07-08 09:37:07.980116+00:00,-0.0371,-1.0024,0.0156
2026-07-08 09:37:07.980557+00:00,-0.0771,-0.9902,-0.0073
2026-07-08 09:37:07.980985+00:00,-0.0063,-1.0921,0.0527
2026-07-08 09:37:07.981455+00:00,-0.1415,-0.9482,-0.0342
2026-07-08 09:37:07.981783+00:00,-0.1484,-1.0429,0.0044
2026-07-08 09:37:07.982122+00:00,-0.103,-0.9087,-0.0459
2026-07-08 09:37:08.042645+00:00,-0.0908,-1.0375,0.0478
2026-07-08 09:37:08.043176+00:00,-0.0171,-0.9179,0.0395
2026-07-08 09:37:08.043483+00:00,-0.1776,-0.9155,-0.0029
2026-07-08 09:37:08.043811+00:00,-0.1444,-1.1112,0.0512
2026-07-08 09:37:08.044116+00:00,-0.1352,-0.936,-0.0371
2026-07-08 09:37:08.044454+00:00,-0.1645,-1.1224,-0.0771
2026-07-08 09:37:08.044695+00:00,0.0239,-0.9072,-0.0444
2026-07-08 09:37:08.106994+00:00,-0.1161,-1.039,0.0351
2026-07-08 09:37:08.107178+00:00,-0.0117,-0.9272,-0.0132
2026-07-08 09:37:08.107263+00:00,-0.1586,-1.0297,0.0049
2026-07-08 09:37:08.107337+00:00,-0.1684,-0.997,0.0473
2026-07-08 09:37:08.107481+00:00,-0.041,-0.9082,-0.022
2026-07-08 09:37:08.107795+00:00,-0.1703,-1.1063,0.0483
2026-07-08 09:37:08.160645+00:00,0.0029,-0.9048,-0.0342
2026-07-08 09:37:08.160989+00:00,-0.08,-1.0648,0.0181
2026-07-08 09:37:08.161312+00:00,-0.083,-0.9457,-0.0171
2026-07-08 09:37:08.161862+00:00,-0.1293,-1.0297,0.0161
2026-07-08 09:37:08.162219+00:00,-0.1601,-0.9897,-0.0293
2026-07-08 09:37:08.162696+00:00,-0.059,-0.9877,-0.0185
2026-07-08 09:37:08.211264+00:00,-0.0122,-1.057,0.0488
2026-07-08 09:37:08.211878+00:00,-0.1352,-0.9028,-0.0434
2026-07-08 09:37:08.212329+00:00,-0.0776,-1.0663,0.0542
2026-07-08 09:37:08.212641+00:00,-0.0859,-0.9223,-0.04
2026-07-08 09:37:08.213156+00:00,-0.0708,-1.0131,0.0195
2026-07-08 09:37:08.272748+00:00,-0.0542,-1.0038,-0.0024
2026-07-08 09:37:08.273207+00:00,-0.0737,-1.0019,-0.0039
2026-07-08 09:37:08.273724+00:00,-0.0117,-1.0917,0.0556
2026-07-08 09:37:08.274054+00:00,-0.142,-0.9628,-0.0327
2026-07-08 09:37:08.274715+00:00,-0.1376,-1.0355,0.0068
2026-07-08 09:37:08.335926+00:00,-0.1035,-0.9018,-0.0464
2026-07-08 09:37:08.352273+00:00,-0.0903,-1.0316,0.04
2026-07-08 09:37:08.352662+00:00,-0.0254,-0.9101,0.0405
2026-07-08 09:37:08.352895+00:00,-0.1776,-0.9989,-0.0005
2026-07-08 09:37:08.353217+00:00,-0.0234,-1.1239,0.0517
2026-07-08 09:37:08.353471+00:00,-0.1244,-0.9321,-0.0293
2026-07-08 09:37:08.390555+00:00,-0.1669,-1.1175,-0.0156
2026-07-08 09:37:08.391129+00:00,0.0083,-0.915,-0.0429
2026-07-08 09:37:08.391422+00:00,-0.0854,-1.0414,0.022
2026-07-08 09:37:08.391667+00:00,-0.0132,-0.9487,-0.0137
2026-07-08 09:37:08.391845+00:00,-0.1288,-1.0292,-0.1113
2026-07-08 09:37:08.391997+00:00,-0.1649,-0.9892,0.0483
2026-07-08 09:37:08.447662+00:00,-0.0586,-0.8935,-0.021
2026-07-08 09:37:08.448246+00:00,-0.1703,-1.0804,0.0459
2026-07-08 09:37:08.448835+00:00,-0.0381,-0.9116,-0.0395
2026-07-08 09:37:08.449113+00:00,-0.0791,-1.0619,-0.0073
2026-07-08 09:37:08.449593+00:00,-0.0898,-0.9882,0.001
2026-07-08 09:37:08.502126+00:00,-0.0659,-1.0155,0.0181
2026-07-08 09:37:08.502547+00:00,-0.0976,-1.0058,0.0093
2026-07-08 09:37:08.502758+00:00,-0.0747,-0.9931,-0.02
2026-07-08 09:37:08.502967+00:00,-0.0093,-1.059,0.0337
2026-07-08 09:37:08.503169+00:00,-0.0678,-0.9409,-0.021
2026-07-08 09:37:08.503374+00:00,-0.0952,-1.0316,-0.0054
2026-07-08 09:37:08.503623+00:00,-0.1088,-0.9013,-0.0093
2026-07-08 09:37:08.548653+00:00,-0.1059,-0.9121,-0.0024
2026-07-08 09:37:08.549141+00:00,-0.0098,-1.0199,0.041
2026-07-08 09:37:08.549452+00:00,-0.0966,-0.9872,0.001
2026-07-08 09:37:08.549871+00:00,-0.0473,-1.1268,0.0454
2026-07-08 09:37:08.595231+00:00,-0.0981,-0.9072,-0.0156
2026-07-08 09:37:08.595654+00:00,-0.1703,-1.0228,0.0054
2026-07-08 09:37:08.596004+00:00,-0.0937,-0.894,-0.0322
2026-07-08 09:37:08.596253+00:00,-0.1684,-1.0565,0.0073
2026-07-08 09:37:08.596472+00:00,-0.0371,-0.9823,0.0434
2026-07-08 09:37:08.648626+00:00,-0.0913,-0.9579,-0.0356
2026-07-08 09:37:08.649279+00:00,-0.1074,-1.1248,0.0468
2026-07-08 09:37:08.649688+00:00,-0.0156,-0.8877,-0.0215
2026-07-08 09:37:08.649975+00:00,-0.162,-1.0702,0.0449
2026-07-08 09:37:08.650295+00:00,-0.0586,-0.9194,-0.0088
2026-07-08 09:37:08.711857+00:00,-0.1893,-1.0482,-0.0088
2026-07-08 09:37:08.712544+00:00,-0.1254,-0.9984,0.0132
2026-07-08 09:37:08.713017+00:00,-0.0342,-0.997,-0.0522
2026-07-08 09:37:08.713690+00:00,-0.0669,-1.0136,0.0351
2026-07-08 09:37:08.714046+00:00,0.0405,-0.9004,-0.0278
2026-07-08 09:37:08.715006+00:00,-0.1196,-1.0521,0.0434
2026-07-08 09:37:08.774690+00:00,-0.0791,-0.9467,-0.0088
2026-07-08 09:37:08.775135+00:00,-0.0932,-1.0189,0.0102
2026-07-08 09:37:08.775666+00:00,-0.1054,-0.9926,-0.0254
2026-07-08 09:37:08.776090+00:00,-0.0434,-0.9906,-0.0054
2026-07-08 09:37:08.776532+00:00,-0.0151,-1.0321,0.0464
2026-07-08 09:37:08.776835+00:00,-0.1191,-0.975,-0.0356
2026-07-08 09:37:08.777666+00:00,-0.0791,-1.058,0.0547
2026-07-08 09:37:08.837799+00:00,-0.0913,-0.9482,-0.0342
2026-07-08 09:37:08.838607+00:00,-0.0727,-1.0272,0.0381
2026-07-08 09:37:08.839136+00:00,-0.0625,-0.9052,-0.0098
2026-07-08 09:37:08.839527+00:00,-0.1903,-0.9862,-0.0049
2026-07-08 09:37:08.839841+00:00,-0.0063,-1.0653,0.0488
2026-07-08 09:37:08.840310+00:00,-0.141,-0.9443,-0.0517
2026-07-08 09:37:08.897740+00:00,-0.141,-1.1165,0.0083
2026-07-08 09:37:08.898104+00:00,0.0142,-0.896,-0.0434
2026-07-08 09:37:08.898329+00:00,-0.0142,-1.0409,0.0429
2026-07-08 09:37:08.898415+00:00,-0.0151,-0.9321,-0.0005
2026-07-08 09:37:08.898485+00:00,-0.182,-1.0512,-0.1215
2026-07-08 09:37:08.898616+00:00,-0.1664,-1.0053,0.0473
2026-07-08 09:37:08.948469+00:00,-0.0312,-0.8989,-0.0332
2026-07-08 09:37:08.948977+00:00,-0.1703,-1.0926,0.0429
2026-07-08 09:37:08.949290+00:00,0.0059,-0.8955,-0.0346
2026-07-08 09:37:08.949887+00:00,-0.0815,-1.0638,0.022
2026-07-08 09:37:08.950360+00:00,-0.0888,-0.9775,-0.0093
2026-07-08 09:37:08.996886+00:00,-0.1196,-1.0438,0.0259
2026-07-08 09:37:08.997285+00:00,-0.1508,-0.9911,-0.0254
2026-07-08 09:37:08.997461+00:00,-0.0605,-0.9784,-0.0254
2026-07-08 09:37:08.997748+00:00,0.0005,-1.0604,0.0376
2026-07-08 09:37:08.998023+00:00,-0.0386,-0.9091,-0.0434
2026-07-08 09:37:09.044274+00:00,-0.0815,-1.056,0.0429
2026-07-08 09:37:09.044804+00:00,-0.0981,-0.9443,0.0059
2026-07-08 09:37:09.045172+00:00,-0.0771,-1.0092,0.0166
2026-07-08 09:37:09.045616+00:00,-0.0381,-0.9984,0.0181
2026-07-08 09:37:09.045797+00:00,-0.0864,-0.9755,-0.0093
2026-07-08 09:37:09.098568+00:00,-0.0117,-1.0907,0.0503
2026-07-08 09:37:09.099218+00:00,-0.1293,-0.9189,-0.0166
2026-07-08 09:37:09.099865+00:00,-0.1615,-1.0165,-0.0137
2026-07-08 09:37:09.100670+00:00,-0.1069,-0.9023,-0.042
2026-07-08 09:37:09.102000+00:00,-0.121,-1.0516,0.0317
2026-07-08 09:37:09.150065+00:00,-0.0073,-0.9433,0.0449
2026-07-08 09:37:09.150394+00:00,-0.1469,-0.9965,0.0015
2026-07-08 09:37:09.150637+00:00,-0.0517,-1.1356,0.0464
2026-07-08 09:37:09.150953+00:00,-0.0839,-0.9052,-0.019
2026-07-08 09:37:09.151162+00:00,-0.1684,-1.0897,0.0142
2026-07-08 09:37:09.211217+00:00,-0.022,-0.8867,-0.0298
2026-07-08 09:37:09.211942+00:00,-0.1762,-1.0468,0.0
2026-07-08 09:37:09.212416+00:00,-0.0459,-0.9887,-0.0029
2026-07-08 09:37:09.212698+00:00,-0.0791,-1.036,-0.039
2026-07-08 09:37:09.213034+00:00,-0.1235,-1.1385,0.0415
2026-07-08 09:37:09.213270+00:00,-0.0752,-0.8886,-0.0205
2026-07-08 09:37:09.272416+00:00,-0.1552,-1.0521,0.0346
2026-07-08 09:37:09.272894+00:00,-0.0649,-0.9184,-0.0078
2026-07-08 09:37:09.273229+00:00,-0.0883,-1.0268,-0.0102
2026-07-08 09:37:09.273493+00:00,-0.1064,-1.0063,0.002
2026-07-08 09:37:09.273694+00:00,-0.0337,-1.0033,0.0073
2026-07-08 09:37:09.273923+00:00,-0.06,-1.035,0.0459
2026-07-08 09:37:09.274031+00:00,-0.101,-1.0004,-0.0239
2026-07-08 09:37:09.326730+00:00,-0.0249,-1.0585,0.0439
2026-07-08 09:37:09.327188+00:00,-0.0752,-0.9394,-0.0156
2026-07-08 09:37:09.327398+00:00,-0.0893,-1.0077,-0.0083
2026-07-08 09:37:09.327781+00:00,-0.0976,-0.8789,-0.0293
2026-07-08 09:37:09.328049+00:00,-0.162,-0.9994,-0.0005
2026-07-08 09:37:09.375653+00:00,-0.0137,-1.0541,0.0468
2026-07-08 09:37:09.376106+00:00,-0.122,-0.9809,-0.0264
2026-07-08 09:37:09.376468+00:00,-0.1,-1.1458,0.0464
2026-07-08 09:37:09.376748+00:00,-0.0234,-0.9296,-0.0366
2026-07-08 09:37:09.376929+00:00,-0.0376,-1.0199,0.0434
2026-07-08 09:37:09.438385+00:00,-0.0429,-0.8979,-0.0117
2026-07-08 09:37:09.439226+00:00,-0.1903,-1.035,-0.0039
2026-07-08 09:37:09.439574+00:00,-0.1225,-0.9916,0.0537
2026-07-08 09:37:09.439759+00:00,-0.0405,-0.9414,-0.0425
2026-07-08 09:37:09.439848+00:00,-0.1581,-1.1292,0.0478
2026-07-08 09:37:09.440040+00:00,0.0205,-0.9057,-0.0205
2026-07-08 09:37:09.503240+00:00,-0.1142,-1.0619,0.0312
2026-07-08 09:37:09.503754+00:00,-0.0732,-0.9287,-0.0107
2026-07-08 09:37:09.504037+00:00,-0.1532,-1.0243,0.0024
2026-07-08 09:37:09.504269+00:00,-0.1762,-0.9867,-0.0244
2026-07-08 09:37:09.504529+00:00,-0.0473,-0.9921,-0.0161
2026-07-08 09:37:09.504755+00:00,-0.0142,-1.0951,0.0498
2026-07-08 09:37:09.505014+00:00,-0.0117,-0.9077,-0.0381
2026-07-08 09:37:09.556834+00:00,-0.0776,-1.0643,0.0473
2026-07-08 09:37:09.557161+00:00,-0.0878,-0.9399,-0.0132
2026-07-08 09:37:09.557579+00:00,-0.0747,-1.0297,0.0224
2026-07-08 09:37:09.558004+00:00,-0.0639,-0.9858,-0.0044
2026-07-08 09:37:09.558313+00:00,-0.0747,-0.9887,-0.001
2026-07-08 09:37:09.616266+00:00,-0.0068,-1.0834,0.0322
2026-07-08 09:37:09.616727+00:00,-0.1391,-0.9579,-0.0425
2026-07-08 09:37:09.617535+00:00,-0.1386,-1.038,0.0059
2026-07-08 09:37:09.618240+00:00,-0.1044,-0.9067,-0.042
2026-07-08 09:37:09.618593+00:00,-0.0927,-1.0297,0.0478
2026-07-08 09:37:09.618775+00:00,-0.019,-0.9301,0.0386
2026-07-08 09:37:09.678813+00:00,-0.1776,-1.0028,-0.0039
2026-07-08 09:37:09.679600+00:00,-0.0234,-1.1112,0.0464
2026-07-08 09:37:09.680547+00:00,-0.1181,-0.9087,-0.0322
2026-07-08 09:37:09.680841+00:00,-0.1728,-1.1009,-0.0137
2026-07-08 09:37:09.681704+00:00,0.0088,-0.896,-0.0376
2026-07-08 09:37:09.682583+00:00,-0.1435,-1.0555,0.022
2026-07-08 09:37:09.742127+00:00,-0.0132,-0.9594,-0.0117
2026-07-08 09:37:09.742723+00:00,-0.1303,-1.037,-0.0098
2026-07-08 09:37:09.743202+00:00,-0.1615,-1.1366,0.0449
2026-07-08 09:37:09.743684+00:00,-0.0586,-0.8901,-0.0234
2026-07-08 09:37:09.744027+00:00,-0.1679,-1.0775,0.0425
2026-07-08 09:37:09.744261+00:00,-0.0405,-0.9101,-0.0146
2026-07-08 09:37:09.802491+00:00,-0.0786,-1.057,-0.0059
2026-07-08 09:37:09.802749+00:00,-0.0898,-0.9926,0.001
2026-07-08 09:37:09.802903+00:00,-0.0673,-1.0238,0.0259
2026-07-08 09:37:09.802984+00:00,-0.0981,-1.0087,0.0102
2026-07-08 09:37:09.803160+00:00,-0.0761,-0.9955,-0.0215
2026-07-08 09:37:09.803650+00:00,-0.0078,-1.0531,0.0346
2026-07-08 09:37:09.803930+00:00,-0.0708,-0.9321,-0.0264
2026-07-08 09:37:09.852108+00:00,-0.0947,-1.0321,-0.002
2026-07-08 09:37:09.852831+00:00,-0.1049,-0.9111,-0.0044
2026-07-08 09:37:09.853473+00:00,-0.0996,-1.0009,0.0049
2026-07-08 09:37:09.853786+00:00,-0.0537,-1.0238,0.0425
2026-07-08 09:37:09.854432+00:00,-0.0952,-0.9941,0.0005
2026-07-08 09:37:09.915418+00:00,-0.0273,-1.1156,0.042
2026-07-08 09:37:09.915751+00:00,-0.1103,-0.9443,-0.0142
2026-07-08 09:37:09.916230+00:00,-0.0522,-1.0097,-0.0112
2026-07-08 09:37:09.916378+00:00,-0.102,-0.894,-0.0386
2026-07-08 09:37:09.916689+00:00,-0.1469,-1.0551,-0.0015
2026-07-08 09:37:09.917049+00:00,-0.0161,-1.0946,0.0439
2026-07-08 09:37:09.977764+00:00,-0.1264,-0.9794,-0.0122
2026-07-08 09:37:09.978323+00:00,-0.0708,-1.1322,0.0459
2026-07-08 09:37:09.978639+00:00,-0.0512,-0.8852,-0.0234
2026-07-08 09:37:09.978938+00:00,-0.1708,-1.0726,0.0288
2026-07-08 09:37:09.979297+00:00,-0.0371,-0.9067,-0.0176
2026-07-08 09:37:09.979607+00:00,-0.1796,-1.0594,0.0005
2026-07-08 09:37:10.026314+00:00,-0.0459,-1.0067,0.0015
2026-07-08 09:37:10.026683+00:00,-0.0781,-1.0307,-0.0439
2026-07-08 09:37:10.027052+00:00,-0.1098,-1.1209,0.0386
2026-07-08 09:37:10.027335+00:00,-0.0049,-0.8779,-0.0254
2026-07-08 09:37:10.027714+00:00,-0.1523,-1.0526,0.0312
2026-07-08 09:37:10.074394+00:00,-0.0664,-0.9272,-0.002
2026-07-08 09:37:10.074975+00:00,-0.0937,-1.0555,-0.0093
2026-07-08 09:37:10.075143+00:00,-0.1205,-1.0087,0.0083
2026-07-08 09:37:10.075376+00:00,-0.041,-1.0116,0.0132
2026-07-08 09:37:10.075757+00:00,-0.0693,-1.0087,0.039
2026-07-08 09:37:10.127443+00:00,-0.081,-0.9823,-0.0229
2026-07-08 09:37:10.127848+00:00,-0.0215,-1.0482,0.0337
2026-07-08 09:37:10.128005+00:00,-0.0805,-0.9565,-0.0112
2026-07-08 09:37:10.128090+00:00,-0.0976,-1.0272,-0.0088
2026-07-08 09:37:10.128159+00:00,-0.1035,-0.9165,-0.0161
2026-07-08 09:37:10.181070+00:00,-0.121,-0.996,-0.0024
2026-07-08 09:37:10.181700+00:00,-0.0356,-1.0097,0.04
2026-07-08 09:37:10.182294+00:00,-0.0996,-0.977,-0.0024
2026-07-08 09:37:10.182762+00:00,-0.041,-1.1097,0.0454
2026-07-08 09:37:10.183227+00:00,-0.1049,-0.9604,-0.0151
2026-07-08 09:37:10.247041+00:00,-0.0913,-1.0258,0.0005
2026-07-08 09:37:10.247514+00:00,-0.0976,-0.9077,-0.0283
2026-07-08 09:37:10.248016+00:00,-0.1566,-1.0682,-0.0039
2026-07-08 09:37:10.248800+00:00,-0.0195,-1.0209,0.0429
2026-07-08 09:37:10.249188+00:00,-0.1196,-0.9677,-0.0185
2026-07-08 09:37:10.249484+00:00,-0.0712,-1.1146,0.0342
2026-07-08 09:37:10.249776+00:00,-0.0595,-0.8725,-0.0283
2026-07-08 09:37:10.307352+00:00,-0.1708,-1.0658,0.0332
2026-07-08 09:37:10.307905+00:00,-0.0351,-0.9174,-0.0107
2026-07-08 09:37:10.308449+00:00,-0.182,-1.0751,0.0024
2026-07-08 09:37:10.308764+00:00,-0.0537,-1.0053,-0.0039
2026-07-08 09:37:10.309001+00:00,-0.0761,-1.0336,-0.0478
2026-07-08 09:37:10.309272+00:00,-0.1161,-1.1136,0.0395
2026-07-08 09:37:10.371848+00:00,-0.0098,-0.875,-0.0244
2026-07-08 09:37:10.372161+00:00,-0.1591,-1.056,0.0317
2026-07-08 09:37:10.372339+00:00,-0.0659,-0.9379,-0.0044
2026-07-08 09:37:10.372444+00:00,-0.0927,-1.0658,-0.0068
2026-07-08 09:37:10.372920+00:00,-0.1098,-0.998,0.0059
2026-07-08 09:37:10.373320+00:00,-0.0386,-0.9999,0.0142
2026-07-08 09:37:10.421775+00:00,-0.0766,-0.9892,0.0361
2026-07-08 09:37:10.422313+00:00,-0.0825,-0.894,-0.0293
2026-07-08 09:37:10.422593+00:00,-0.1283,-1.0546,0.0332
2026-07-08 09:37:10.422918+00:00,-0.0781,-0.9609,-0.0122
2026-07-08 09:37:10.423264+00:00,-0.0991,-1.0414,0.0034
2026-07-08 09:37:10.484393+00:00,-0.1078,-0.9311,-0.0122
2026-07-08 09:37:10.485171+00:00,-0.1166,-0.9823,-0.0054
2026-07-08 09:37:10.485519+00:00,-0.0381,-0.9941,0.0361
2026-07-08 09:37:10.485828+00:00,-0.0991,-0.9667,-0.0073
2026-07-08 09:37:10.486154+00:00,-0.0425,-1.1,0.0508
2026-07-08 09:37:10.486648+00:00,-0.0976,-0.9745,-0.0083
2026-07-08 09:37:10.486934+00:00,-0.0917,-1.0316,0.0049
2026-07-08 09:37:10.545594+00:00,-0.0942,-0.914,-0.0264
2026-07-08 09:37:10.546153+00:00,-0.1664,-1.0682,-0.0083
2026-07-08 09:37:10.546427+00:00,-0.0283,-1.0263,0.0386
2026-07-08 09:37:10.546652+00:00,-0.1152,-0.9496,-0.0327
2026-07-08 09:37:10.546992+00:00,-0.0888,-1.1209,0.0425
2026-07-08 09:37:10.547210+00:00,-0.0361,-0.8794,-0.0322
2026-07-08 09:37:10.595972+00:00,-0.1645,-1.0424,0.0483
2026-07-08 09:37:10.596344+00:00,-0.0561,-0.917,-0.0063
2026-07-08 09:37:10.596526+00:00,-0.1923,-1.0551,-0.0093
2026-07-08 09:37:10.596668+00:00,-0.0952,-1.0028,0.0464
2026-07-08 09:37:10.596744+00:00,-0.0508,-0.8813,-0.0512
2026-07-08 09:37:10.645974+00:00,-0.0791,-1.119,0.042
2026-07-08 09:37:10.646312+00:00,0.0127,-0.8989,-0.0224
2026-07-08 09:37:10.646680+00:00,-0.1327,-1.0629,0.039
2026-07-08 09:37:10.647176+00:00,-0.0756,-0.9575,0.0015
2026-07-08 09:37:10.647486+00:00,-0.0952,-1.0404,0.002
2026-07-08 09:37:10.694339+00:00,-0.1659,-0.9867,-0.0181
2026-07-08 09:37:10.695063+00:00,-0.041,-0.9838,-0.0039
2026-07-08 09:37:10.695550+00:00,-0.0273,-1.0141,0.0468
2026-07-08 09:37:10.695722+00:00,-0.1005,-0.9145,-0.0312
2026-07-08 09:37:10.695989+00:00,-0.0771,-1.077,0.0586
2026-07-08 09:37:10.742579+00:00,-0.0859,-0.9677,-0.0215
2026-07-08 09:37:10.742914+00:00,-0.0795,-1.0321,0.0229
2026-07-08 09:37:10.743031+00:00,-0.081,-0.9701,-0.0278
2026-07-08 09:37:10.743336+00:00,-0.0771,-0.9726,-0.0107
2026-07-08 09:37:10.743799+00:00,-0.0088,-1.0536,0.0434
2026-07-08 09:37:10.788999+00:00,-0.1337,-0.9428,-0.0342
2026-07-08 09:37:10.789393+00:00,-0.1318,-1.0058,0.0224
2026-07-08 09:37:10.789744+00:00,0.0102,-0.9306,-0.0366
2026-07-08 09:37:10.790299+00:00,-0.0942,-1.0399,0.0454
2026-07-08 09:37:10.843060+00:00,-0.0142,-0.9209,0.123
2026-07-08 09:37:10.843575+00:00,-0.1771,-1.0336,-0.0054
2026-07-08 09:37:10.844262+00:00,-0.1513,-1.1131,0.0454
2026-07-08 09:37:10.844785+00:00,-0.1132,-0.9135,-0.0293
2026-07-08 09:37:10.845097+00:00,-0.1737,-1.1102,0.0468
2026-07-08 09:37:10.902370+00:00,-0.0063,-0.9243,-0.0337
2026-07-08 09:37:10.902890+00:00,-0.08,-1.0482,0.02
2026-07-08 09:37:10.903027+00:00,-0.0195,-0.9536,-0.0107
2026-07-08 09:37:10.903197+00:00,-0.1064,-1.0175,0.0146
2026-07-08 09:37:10.903303+00:00,-0.1464,-0.9658,0.0483
2026-07-08 09:37:10.903414+00:00,-0.0752,-0.8999,-0.019
2026-07-08 09:37:10.903509+00:00,-0.162,-1.0775,0.0415
2026-07-08 09:37:10.948886+00:00,-0.0625,-0.9453,-0.0283
2026-07-08 09:37:10.949294+00:00,-0.0849,-1.0546,-0.0127
2026-07-08 09:37:10.949703+00:00,-0.1035,-0.9311,-0.0049
2026-07-08 09:37:10.950023+00:00,-0.0874,-0.9843,0.0015
2026-07-08 09:37:10.997036+00:00,-0.0683,-1.0053,0.0351
2026-07-08 09:37:10.997589+00:00,-0.0849,-0.9858,-0.0029
2026-07-08 09:37:10.997982+00:00,-0.0239,-1.1117,0.0444
2026-07-08 09:37:10.998265+00:00,-0.12,-0.9677,-0.0083
2026-07-08 09:37:10.998505+00:00,-0.0922,-1.0248,-0.0063
2026-07-08 09:37:11.046236+00:00,-0.103,-0.894,-0.0376
2026-07-08 09:37:11.046988+00:00,-0.1523,-1.0487,-0.0063
2026-07-08 09:37:11.047635+00:00,-0.0195,-1.0272,0.0415
2026-07-08 09:37:11.048276+00:00,-0.1186,-0.9721,-0.0244
2026-07-08 09:37:11.049259+00:00,-0.0888,-1.1326,0.0478
2026-07-08 09:37:11.094726+00:00,-0.0327,-0.8945,-0.0356
2026-07-08 09:37:11.095505+00:00,-0.1615,-1.0355,0.0444
2026-07-08 09:37:11.095828+00:00,-0.0464,-0.915,-0.0049
2026-07-08 09:37:11.096125+00:00,-0.1913,-1.0507,-0.0083
2026-07-08 09:37:11.096468+00:00,-0.1137,-0.997,0.0512
2026-07-08 09:37:11.145224+00:00,-0.0386,-0.9955,-0.0483
2026-07-08 09:37:11.145623+00:00,-0.0669,-1.1175,0.0434
2026-07-08 09:37:11.146078+00:00,0.0122,-0.8979,-0.0224
2026-07-08 09:37:11.146331+00:00,-0.1118,-1.0555,0.039
2026-07-08 09:37:11.146611+00:00,-0.08,-0.9609,-0.0078
2026-07-08 09:37:11.207544+00:00,-0.0966,-1.037,0.0093
2026-07-08 09:37:11.208253+00:00,-0.1649,-0.9765,-0.0293
2026-07-08 09:37:11.208856+00:00,-0.0566,-0.9848,-0.0059
2026-07-08 09:37:11.209308+00:00,-0.0093,-1.0282,0.0498
2026-07-08 09:37:11.209735+00:00,-0.1161,-0.9091,-0.0415
2026-07-08 09:37:11.263678+00:00,-0.0737,-1.0746,0.0566
2026-07-08 09:37:11.263974+00:00,-0.0922,-0.9487,-0.0322
2026-07-08 09:37:11.264249+00:00,-0.0766,-1.0302,0.022
2026-07-08 09:37:11.264378+00:00,-0.0551,-0.9902,-0.0059
2026-07-08 09:37:11.264520+00:00,-0.0669,-0.9838,-0.0083
2026-07-08 09:37:11.264649+00:00,-0.0102,-1.079,0.0459
2026-07-08 09:37:11.264751+00:00,-0.1342,-0.9438,-0.0249
2026-07-08 09:37:11.313087+00:00,-0.1493,-1.0009,0.0039
2026-07-08 09:37:11.313617+00:00,-0.1171,-0.9223,-0.0371
2026-07-08 09:37:11.313852+00:00,-0.0986,-1.0463,0.0464
2026-07-08 09:37:11.314237+00:00,-0.0117,-0.9331,0.1166
2026-07-08 09:37:11.314550+00:00,-0.1684,-1.035,-0.0044
2026-07-08 09:37:11.374287+00:00,-0.161,-1.1136,0.0444
2026-07-08 09:37:11.374719+00:00,-0.1142,-0.9023,-0.0273
2026-07-08 09:37:11.375089+00:00,-0.1781,-1.1102,0.0493
2026-07-08 09:37:11.375468+00:00,-0.0063,-0.9218,-0.0322
2026-07-08 09:37:11.375793+00:00,-0.0825,-1.0516,0.019
2026-07-08 09:37:11.375971+00:00,-0.0181,-0.956,-0.0156
2026-07-08 09:37:11.421193+00:00,-0.1118,-1.0175,0.0185
2026-07-08 09:37:11.421648+00:00,-0.1454,-0.9628,0.0444
2026-07-08 09:37:11.421863+00:00,-0.062,-0.895,-0.0176
2026-07-08 09:37:11.422362+00:00,-0.1698,-1.0863,0.0459
2026-07-08 09:37:11.469224+00:00,-0.0464,-0.9389,-0.0332
2026-07-08 09:37:11.469683+00:00,-0.0937,-1.0765,-0.0127
2026-07-08 09:37:11.470312+00:00,-0.1015,-0.9438,-0.0034
2026-07-08 09:37:11.470528+00:00,-0.0752,-0.9882,0.0059
2026-07-08 09:37:11.470779+00:00,-0.0771,-0.9814,0.0156
2026-07-08 09:37:11.530025+00:00,-0.0781,-0.9653,-0.0166
2026-07-08 09:37:11.530519+00:00,-0.0176,-1.0824,0.0459
2026-07-08 09:37:11.530987+00:00,-0.1347,-0.9765,-0.002
2026-07-08 09:37:11.531241+00:00,-0.1025,-1.0438,-0.0049
2026-07-08 09:37:11.531566+00:00,-0.1039,-0.9121,-0.0337
2026-07-08 09:37:11.531799+00:00,-0.1093,-1.0516,-0.0151
2026-07-08 09:37:11.598753+00:00,-0.0117,-1.0004,0.0332
2026-07-08 09:37:11.599389+00:00,-0.0976,-0.9819,-0.002
2026-07-08 09:37:11.600001+00:00,-0.0493,-1.119,0.0405
2026-07-08 09:37:11.600424+00:00,-0.1088,-0.9106,-0.0142
2026-07-08 09:37:11.600748+00:00,-0.1732,-1.0233,-0.001
2026-07-08 09:37:11.601108+00:00,-0.0913,-0.8955,-0.0254
2026-07-08 09:37:11.601538+00:00,-0.1557,-1.0487,0.0161
2026-07-08 09:37:11.661321+00:00,-0.0288,-0.9511,0.0434
2026-07-08 09:37:11.661789+00:00,-0.1142,-0.8813,-0.0239
2026-07-08 09:37:11.662092+00:00,-0.019,-1.1385,0.0468
2026-07-08 09:37:11.662440+00:00,-0.0488,-0.9062,-0.0151
2026-07-08 09:37:11.662865+00:00,-0.1684,-1.099,0.0517
2026-07-08 09:37:11.662993+00:00,-0.0415,-0.9345,-0.0127
2026-07-08 09:37:11.717559+00:00,-0.0869,-1.0394,-0.0102
2026-07-08 09:37:11.717964+00:00,-0.0786,-0.9701,-0.0049
2026-07-08 09:37:11.718463+00:00,-0.0688,-0.9819,0.0093
2026-07-08 09:37:11.718937+00:00,-0.0922,-0.974,0.0512
2026-07-08 09:37:11.719636+00:00,-0.0659,-0.9135,-0.0117
2026-07-08 09:37:11.773645+00:00,-0.1493,-1.0892,0.0429
2026-07-08 09:37:11.774001+00:00,-0.061,-0.9711,-0.0112
2026-07-08 09:37:11.774301+00:00,-0.0991,-1.0673,-0.0185
2026-07-08 09:37:11.774576+00:00,-0.0991,-0.9706,-0.0015
2026-07-08 09:37:11.774985+00:00,-0.0322,-0.9594,-0.0088
2026-07-08 09:37:11.775195+00:00,-0.0673,-0.9838,0.0181
2026-07-08 09:37:11.775600+00:00,-0.0825,-0.9662,-0.0132
2026-07-08 09:37:11.838265+00:00,-0.0229,-1.0912,0.0483
2026-07-08 09:37:11.838903+00:00,-0.1459,-0.9862,0.0034
2026-07-08 09:37:11.839335+00:00,-0.1039,-1.0487,-0.002
2026-07-08 09:37:11.839758+00:00,-0.1039,-0.915,-0.0224
2026-07-08 09:37:11.840176+00:00,-0.1054,-1.0507,-0.0176
2026-07-08 09:37:11.840383+00:00,-0.0112,-0.9911,0.0346
2026-07-08 09:37:11.902535+00:00,-0.0898,-0.9745,-0.0044
2026-07-08 09:37:11.903234+00:00,-0.0361,-1.1053,0.0425
2026-07-08 09:37:11.903655+00:00,-0.1332,-0.9199,-0.002
2026-07-08 09:37:11.903990+00:00,-0.1654,-1.0433,-0.0068
2026-07-08 09:37:11.904191+00:00,-0.0981,-0.9106,-0.0298
2026-07-08 09:37:11.904457+00:00,-0.1225,-1.0507,0.0342
2026-07-08 09:37:11.966921+00:00,-0.0117,-0.9379,0.0395
2026-07-08 09:37:11.967474+00:00,-0.1513,-0.9828,-0.0034
2026-07-08 09:37:11.968137+00:00,-0.0439,-1.1204,0.04
2026-07-08 09:37:11.968744+00:00,-0.1083,-0.9048,-0.0273
2026-07-08 09:37:11.969231+00:00,-0.1684,-1.1141,-0.0059
2026-07-08 09:37:11.969509+00:00,0.0015,-0.9267,-0.0303
2026-07-08 09:37:11.970043+00:00,-0.0913,-1.0497,0.0244
2026-07-08 09:37:12.026739+00:00,-0.0171,-0.9428,-0.0181
2026-07-08 09:37:12.027420+00:00,-0.1396,-1.0214,-0.1147
2026-07-08 09:37:12.027893+00:00,-0.1581,-0.9682,0.0405
2026-07-08 09:37:12.028450+00:00,-0.0429,-0.913,-0.022
2026-07-08 09:37:12.028811+00:00,-0.1684,-1.1112,0.0517
2026-07-08 09:37:12.029188+00:00,-0.0054,-0.9262,-0.0273
2026-07-08 09:37:12.076379+00:00,-0.0859,-1.0897,0.0176
2026-07-08 09:37:12.076634+00:00,-0.0795,-0.9418,-0.02
2026-07-08 09:37:12.076998+00:00,-0.1293,-1.0209,0.0137
2026-07-08 09:37:12.077411+00:00,-0.1586,-0.9692,-0.0307
2026-07-08 09:37:12.077693+00:00,-0.0449,-0.9692,-0.0181
2026-07-08 09:37:12.126560+00:00,-0.0195,-1.1029,0.0503
2026-07-08 09:37:12.127073+00:00,-0.0156,-0.9277,-0.0288
2026-07-08 09:37:12.127225+00:00,-0.082,-1.0853,0.0566
2026-07-08 09:37:12.127339+00:00,-0.08,-0.9648,-0.0151
2026-07-08 09:37:12.127417+00:00,-0.0849,-1.0185,0.0181
2026-07-08 09:37:12.177046+00:00,-0.1557,-0.9662,-0.0327
2026-07-08 09:37:12.177407+00:00,-0.0503,-0.9706,-0.0059
2026-07-08 09:37:12.177729+00:00,-0.0151,-1.0263,0.0468
2026-07-08 09:37:12.178041+00:00,-0.1205,-0.9784,-0.0332
2026-07-08 09:37:12.178337+00:00,-0.0786,-1.0814,0.0556
2026-07-08 09:37:12.227610+00:00,-0.082,-0.9643,-0.0283
2026-07-08 09:37:12.227946+00:00,-0.0805,-1.0263,0.0161
2026-07-08 09:37:12.228169+00:00,-0.0903,-0.9018,-0.0317
2026-07-08 09:37:12.228530+00:00,-0.1703,-0.9662,-0.0078
2026-07-08 09:37:12.228679+00:00,-0.0151,-1.0346,0.0415
2026-07-08 09:37:12.282290+00:00,-0.124,-0.9711,-0.0268
2026-07-08 09:37:12.282922+00:00,-0.0849,-1.1326,0.0566
2026-07-08 09:37:12.283159+00:00,-0.0517,-0.956,-0.0322
2026-07-08 09:37:12.283423+00:00,-0.0761,-1.0238,0.0278
2026-07-08 09:37:12.283573+00:00,-0.0874,-0.8994,-0.021
2026-07-08 09:37:12.355551+00:00,-0.1757,-1.0531,-0.0049
2026-07-08 09:37:12.356102+00:00,-0.0468,-1.0946,0.042
2026-07-08 09:37:12.356263+00:00,-0.2245,-0.9701,-0.0332
2026-07-08 09:37:12.356371+00:00,-0.0971,-1.1278,0.0468
2026-07-08 09:37:12.356452+00:00,-0.0381,-0.9018,-0.0181
2026-07-08 09:37:12.356778+00:00,-0.1659,-1.0878,0.0332
2026-07-08 09:37:12.357423+00:00,-0.0395,-0.9033,-0.0146
2026-07-08 09:37:12.357900+00:00,-0.1845,-1.0487,-0.0044
2026-07-08 09:37:12.417012+00:00,-0.0537,-0.9648,-0.0083
2026-07-08 09:37:12.417456+00:00,-0.0791,-1.0087,-0.0434
2026-07-08 09:37:12.418049+00:00,-0.1254,-1.138,0.0434
2026-07-08 09:37:12.418272+00:00,-0.0307,-0.9057,-0.0171
2026-07-08 09:37:12.418620+00:00,-0.1601,-1.0873,0.0439
2026-07-08 09:37:12.419266+00:00,-0.0503,-0.9428,-0.0098
2026-07-08 09:37:12.474672+00:00,-0.081,-1.0404,-0.0107
2026-07-08 09:37:12.475278+00:00,-0.0786,-0.9755,-0.0039
2026-07-08 09:37:12.475493+00:00,-0.0693,-0.9975,0.0156
2026-07-08 09:37:12.475605+00:00,-0.1064,-0.977,0.0444
2026-07-08 09:37:12.476024+00:00,-0.0693,-0.9736,-0.0171
2026-07-08 09:37:12.476496+00:00,-0.1318,-1.0912,0.0464
2026-07-08 09:37:12.533929+00:00,-0.0537,-0.9457,-0.0303
2026-07-08 09:37:12.534173+00:00,-0.0874,-1.0658,-0.0922
2026-07-08 09:37:12.534484+00:00,-0.0981,-0.9267,0.0
2026-07-08 09:37:12.534930+00:00,-0.0727,-0.9848,0.0073
2026-07-08 09:37:12.535100+00:00,-0.0966,-0.9916,0.0093
2026-07-08 09:37:12.535495+00:00,-0.0722,-0.9789,-0.0073
2026-07-08 09:37:12.595234+00:00,-0.0122,-1.078,0.0415
2026-07-08 09:37:12.595755+00:00,-0.144,-0.9531,-0.021
2026-07-08 09:37:12.596304+00:00,-0.0947,-1.056,0.0137
2026-07-08 09:37:12.596667+00:00,-0.1025,-0.9292,-0.0346
2026-07-08 09:37:12.597029+00:00,-0.0864,-1.0443,0.002
2026-07-08 09:37:12.597316+00:00,-0.0298,-0.9828,0.0171
2026-07-08 09:37:12.660406+00:00,-0.0869,-0.9706,-0.0093
2026-07-08 09:37:12.660765+00:00,-0.0122,-1.079,0.0429
2026-07-08 09:37:12.661172+00:00,-0.142,-0.9248,-0.0117
2026-07-08 09:37:12.661671+00:00,-0.1552,-1.0604,0.0083
2026-07-08 09:37:12.661989+00:00,-0.1171,-0.9223,-0.0332
2026-07-08 09:37:12.662264+00:00,-0.0908,-1.0516,0.0576
2026-07-08 09:37:12.708996+00:00,-0.0156,-0.9257,0.0239
2026-07-08 09:37:12.709390+00:00,-0.1747,-1.0282,-0.0102
2026-07-08 09:37:12.709723+00:00,-0.1391,-1.0951,0.042
2026-07-08 09:37:12.710159+00:00,-0.1444,-0.9301,-0.0459
2026-07-08 09:37:12.710572+00:00,-0.164,-1.1287,0.0498
2026-07-08 09:37:12.770300+00:00,0.0185,-0.9252,-0.0346
2026-07-08 09:37:12.770783+00:00,-0.1264,-1.0507,0.0454
2026-07-08 09:37:12.771090+00:00,-0.0166,-0.916,-0.0176
2026-07-08 09:37:12.771349+00:00,-0.1659,-1.0146,-0.0049
2026-07-08 09:37:12.771527+00:00,-0.1527,-0.9662,0.042
2026-07-08 09:37:12.771849+00:00,-0.0278,-0.9184,-0.0312
2026-07-08 09:37:12.817527+00:00,-0.1674,-1.12,0.0498
2026-07-08 09:37:12.817800+00:00,0.0059,-0.936,-0.0195
2026-07-08 09:37:12.818089+00:00,-0.101,-1.099,0.0337
2026-07-08 09:37:12.818313+00:00,-0.0825,-0.9399,-0.0185
2026-07-08 09:37:12.818491+00:00,-0.2211,-1.0087,0.0
2026-07-08 09:37:12.869495+00:00,-0.1576,-0.956,-0.0322
2026-07-08 09:37:12.870079+00:00,-0.0317,-0.9428,-0.0195
2026-07-08 09:37:12.870433+00:00,-0.0249,-0.9999,0.0498
2026-07-08 09:37:12.870586+00:00,-0.1078,-0.9301,-0.0239
2026-07-08 09:37:12.870751+00:00,-0.0903,-1.1048,0.0639
2026-07-08 09:37:12.931470+00:00,-0.0795,-0.9877,-0.0117
2026-07-08 09:37:12.931827+00:00,-0.0849,-1.0438,0.0078
2026-07-08 09:37:12.932422+00:00,-0.0908,-0.9492,-0.0361
2026-07-08 09:37:12.933153+00:00,-0.0439,-0.9394,-0.019
2026-07-08 09:37:12.933635+00:00,-0.0137,-1.0058,0.0366
2026-07-08 09:37:12.933967+00:00,-0.1264,-0.9633,-0.0244
2026-07-08 09:37:12.978146+00:00,-0.0791,-1.118,0.0703
2026-07-08 09:37:12.978839+00:00,-0.083,-0.9809,-0.0195
2026-07-08 09:37:12.979104+00:00,-0.0737,-1.0541,0.0386
2026-07-08 09:37:12.979354+00:00,-0.0791,-0.9013,-0.0425
2026-07-08 09:37:12.979608+00:00,-0.1752,-0.916,-0.0195
2026-07-08 09:37:13.041881+00:00,-0.0102,-1.017,0.0307
2026-07-08 09:37:13.042313+00:00,-0.1401,-0.9501,-0.0434
2026-07-08 09:37:13.042966+00:00,-0.1074,-1.138,0.0444
2026-07-08 09:37:13.043213+00:00,-0.0317,-0.9238,-0.021
2026-07-08 09:37:13.043327+00:00,-0.1688,-1.0565,0.0571
2026-07-08 09:37:13.043433+00:00,-0.0503,-0.913,-0.0068
2026-07-08 09:37:13.043935+00:00,-0.1854,-1.0346,-0.0132
2026-07-08 09:37:13.090015+00:00,-0.0815,-0.9545,0.0327
2026-07-08 09:37:13.090571+00:00,-0.0615,-0.9384,-0.0586
2026-07-08 09:37:13.091058+00:00,-0.1381,-1.1356,0.0473
2026-07-08 09:37:13.091355+00:00,-0.0005,-0.9233,-0.0112
2026-07-08 09:37:13.144658+00:00,-0.1581,-1.1063,0.0625
2026-07-08 09:37:13.145041+00:00,-0.06,-0.9091,-0.0068
2026-07-08 09:37:13.145293+00:00,-0.182,-1.0224,-0.0195
2026-07-08 09:37:13.145526+00:00,-0.1147,-0.9614,-0.0073
2026-07-08 09:37:13.145810+00:00,-0.0312,-0.9389,-0.0542
2026-07-08 09:37:13.146075+00:00,-0.0732,-1.1336,0.0454
2026-07-08 09:37:13.203260+00:00,0.04,-0.936,-0.0102
2026-07-08 09:37:13.203888+00:00,-0.1337,-1.1068,0.0542
2026-07-08 09:37:13.204026+00:00,-0.0717,-1.0077,-0.1176
2026-07-08 09:37:13.204105+00:00,-0.0991,-1.0682,-0.0127
2026-07-08 09:37:13.204256+00:00,-0.1025,-0.9501,-0.0254
2026-07-08 09:37:13.262977+00:00,-0.0229,-0.9301,-0.02
2026-07-08 09:37:13.263618+00:00,-0.0434,-0.9745,0.0278
2026-07-08 09:37:13.263976+00:00,-0.0976,-0.9584,-0.0166
2026-07-08 09:37:13.264429+00:00,-0.0473,-1.1058,0.0576
2026-07-08 09:37:13.265411+00:00,-0.082,-1.0019,0.002
2026-07-08 09:37:13.265842+00:00,-0.0932,-1.0468,0.0015
2026-07-08 09:37:13.266169+00:00,-0.0947,-0.9072,-0.0361
2026-07-08 09:37:13.310965+00:00,-0.1415,-0.937,-0.019
2026-07-08 09:37:13.311580+00:00,-0.0127,-0.997,0.0342
2026-07-08 09:37:13.311909+00:00,-0.1161,-0.9643,-0.0142
2026-07-08 09:37:13.312163+00:00,-0.0766,-1.1283,0.0649
2026-07-08 09:37:13.375387+00:00,-0.0786,-0.9858,-0.0137
2026-07-08 09:37:13.389591+00:00,-0.0464,-1.0458,0.0312
2026-07-08 09:37:13.389734+00:00,-0.083,-0.9043,-0.0142
2026-07-08 09:37:13.389813+00:00,-0.1791,-1.0468,-0.0039
2026-07-08 09:37:13.389877+00:00,-0.0444,-1.0873,0.0371
2026-07-08 09:37:13.389949+00:00,-0.0742,-0.9418,-0.0498
2026-07-08 09:37:13.390036+00:00,-0.1269,-1.1302,0.0395
2026-07-08 09:37:13.438554+00:00,-0.0093,-0.9087,-0.0142
2026-07-08 09:37:13.439045+00:00,-0.1606,-1.0956,0.0576
2026-07-08 09:37:13.439302+00:00,-0.0644,-0.915,-0.002
2026-07-08 09:37:13.439577+00:00,-0.1825,-1.0297,-0.0137
2026-07-08 09:37:13.439834+00:00,-0.1152,-0.9643,-0.0083
2026-07-08 09:37:13.440177+00:00,-0.0273,-0.9492,-0.0508
2026-07-08 09:37:13.487053+00:00,-0.059,-1.1331,0.0488
2026-07-08 09:37:13.487465+00:00,0.0161,-0.9272,-0.0142
2026-07-08 09:37:13.487922+00:00,-0.1186,-1.096,0.0532
2026-07-08 09:37:13.488071+00:00,-0.0795,-1.0019,-0.0117
2026-07-08 09:37:13.488520+00:00,-0.0903,-1.0136,0.0029
2026-07-08 09:37:13.535901+00:00,-0.2216,-0.9492,-0.0386
2026-07-08 09:37:13.536287+00:00,-0.0405,-0.9404,-0.0195
2026-07-08 09:37:13.536576+00:00,-0.0122,-0.998,0.0581
2026-07-08 09:37:13.537125+00:00,-0.1254,-0.9555,-0.0264
2026-07-08 09:37:13.537362+00:00,-0.0932,-1.1117,0.0664
2026-07-08 09:37:13.602057+00:00,-0.0849,-0.9755,-0.0249
2026-07-08 09:37:13.602585+00:00,-0.0732,-1.057,0.0556
2026-07-08 09:37:13.603031+00:00,-0.0434,-0.9155,-0.0083
2026-07-08 09:37:13.603156+00:00,-0.1898,-0.9511,-0.0185
2026-07-08 09:37:13.603282+00:00,-0.0132,-1.0653,0.0425
2026-07-08 09:37:13.603433+00:00,-0.1425,-0.9077,-0.0517
2026-07-08 09:37:13.667321+00:00,-0.1708,-1.1195,-0.0029
2026-07-08 09:37:13.667682+00:00,0.0161,-0.9272,-0.0224
2026-07-08 09:37:13.667863+00:00,-0.1347,-1.0663,0.0356
2026-07-08 09:37:13.668139+00:00,-0.0117,-0.9506,-0.0151
2026-07-08 09:37:13.668546+00:00,-0.1313,-1.0121,-0.021
2026-07-08 09:37:13.668891+00:00,-0.1523,-1.1263,0.0439
2026-07-08 09:37:13.669226+00:00,-0.0405,-0.9008,-0.0171
2026-07-08 09:37:13.724668+00:00,-0.1737,-1.0936,0.0468
2026-07-08 09:37:13.725083+00:00,-0.0595,-0.9579,0.0005
2026-07-08 09:37:13.725209+00:00,-0.0849,-1.0795,-0.0107
2026-07-08 09:37:13.725302+00:00,-0.0981,-0.9731,-0.0083
2026-07-08 09:37:13.725378+00:00,-0.0268,-0.9594,-0.0132
2026-07-08 09:37:13.725783+00:00,-0.0337,-0.9789,0.0298
2026-07-08 09:37:13.773915+00:00,-0.102,-0.9731,-0.02
2026-07-08 09:37:13.774788+00:00,-0.061,-1.1014,0.063
2026-07-08 09:37:13.775216+00:00,-0.0874,-0.9853,-0.0161
2026-07-08 09:37:13.775817+00:00,-0.0703,-1.0433,0.04
2026-07-08 09:37:13.776007+00:00,-0.0522,-0.9091,-0.0229
2026-07-08 09:37:13.845978+00:00,-0.1962,-0.9545,-0.0205
2026-07-08 09:37:13.846619+00:00,-0.0146,-1.0687,0.0444
2026-07-08 09:37:13.846890+00:00,-0.141,-0.916,-0.0517
2026-07-08 09:37:13.847230+00:00,-0.1732,-1.1258,-0.0039
2026-07-08 09:37:13.847390+00:00,0.0063,-0.9165,-0.0268
2026-07-08 09:37:13.847475+00:00,-0.1586,-1.0575,0.0234
2026-07-08 09:37:13.900089+00:00,-0.0259,-0.9555,-0.0142
2026-07-08 09:37:13.900647+00:00,-0.0937,-0.9936,-0.1147
2026-07-08 09:37:13.900989+00:00,-0.1132,-1.1956,0.0425
2026-07-08 09:37:13.901238+00:00,-0.0708,-0.9106,-0.0166
2026-07-08 09:37:13.901568+00:00,-0.1649,-1.0873,0.0429
2026-07-08 09:37:13.901961+00:00,-0.0766,-0.9945,-0.001
2026-07-08 09:37:13.972794+00:00,-0.082,-1.0497,0.002
2026-07-08 09:37:13.973153+00:00,-0.0991,-0.9536,-0.0332
2026-07-08 09:37:13.973676+00:00,-0.0454,-0.9472,-0.0137
2026-07-08 09:37:13.974077+00:00,-0.0098,-1.0019,0.0332
2026-07-08 09:37:13.974368+00:00,-0.1269,-0.9389,-0.0283
2026-07-08 09:37:13.975056+00:00,-0.1269,-1.0912,0.0503
2026-07-08 09:37:13.975285+00:00,-0.1025,-0.9662,-0.0229
2026-07-08 09:37:14.027029+00:00,-0.1015,-1.0663,0.0527
2026-07-08 09:37:14.027987+00:00,-0.0078,-0.9399,0.0234
2026-07-08 09:37:14.028701+00:00,-0.1596,-0.9472,-0.0161
2026-07-08 09:37:14.029246+00:00,-0.0537,-1.1073,0.0346
2026-07-08 09:37:14.030040+00:00,-0.0834,-0.8935,-0.0244
2026-07-08 09:37:14.031288+00:00,-0.185,-1.1043,0.0439
2026-07-08 09:37:14.075852+00:00,-0.0444,-0.9604,-0.001
2026-07-08 09:37:14.076115+00:00,-0.0791,-1.0453,-0.0078
2026-07-08 09:37:14.076224+00:00,-0.1005,-0.9726,-0.0039
2026-07-08 09:37:14.076722+00:00,-0.0273,-0.9531,-0.0112
2026-07-08 09:37:14.077169+00:00,-0.0508,-0.9643,0.042
2026-07-08 09:37:14.128134+00:00,-0.0937,-0.9345,-0.0166
2026-07-08 09:37:14.128502+00:00,-0.0942,-1.0975,0.0586
2026-07-08 09:37:14.128803+00:00,-0.0917,-1.0092,-0.0063
2026-07-08 09:37:14.129189+00:00,-0.0776,-1.0658,0.0127
2026-07-08 09:37:14.129395+00:00,-0.0761,-0.9331,-0.0415
2026-07-08 09:37:14.177472+00:00,-0.0659,-0.9331,-0.0234
2026-07-08 09:37:14.178035+00:00,-0.0102,-1.0228,0.0346
2026-07-08 09:37:14.178282+00:00,-0.1381,-0.9052,-0.0049
2026-07-08 09:37:14.178527+00:00,-0.1664,-1.0858,0.0171
2026-07-08 09:37:14.178785+00:00,-0.103,-0.9575,-0.022
2026-07-08 09:37:14.226714+00:00,-0.1288,-1.0834,0.0478
2026-07-08 09:37:14.227216+00:00,-0.0059,-0.9506,0.0259
2026-07-08 09:37:14.227795+00:00,-0.1337,-0.8818,-0.0249
2026-07-08 09:37:14.228022+00:00,-0.1547,-1.1146,0.0322
2026-07-08 09:37:14.228371+00:00,-0.0556,-0.8911,-0.0244
2026-07-08 09:37:14.278608+00:00,-0.1835,-1.1082,0.0542
2026-07-08 09:37:14.279005+00:00,-0.0576,-0.9848,0.0078
2026-07-08 09:37:14.279557+00:00,-0.0844,-1.036,-0.0098
2026-07-08 09:37:14.280072+00:00,-0.1122,-0.9501,-0.0102
2026-07-08 09:37:14.280795+00:00,-0.0234,-0.9414,-0.02
2026-07-08 09:37:14.327879+00:00,-0.04,-0.9565,0.0459
2026-07-08 09:37:14.328391+00:00,-0.0956,-0.9433,-0.0151
2026-07-08 09:37:14.328953+00:00,-0.0883,-1.1058,0.06
2026-07-08 09:37:14.329138+00:00,-0.0922,-1.0214,-0.0039
2026-07-08 09:37:14.329285+00:00,-0.0766,-1.0668,0.0137
2026-07-08 09:37:14.392220+00:00,-0.0766,-0.9267,-0.0425
2026-07-08 09:37:14.392853+00:00,-0.0659,-0.9252,-0.0249
2026-07-08 09:37:14.393160+00:00,-0.0034,-1.0238,0.0366
2026-07-08 09:37:14.393322+00:00,-0.144,-0.916,-0.0059
2026-07-08 09:37:14.393469+00:00,-0.1674,-1.0053,0.0185
2026-07-08 09:37:14.393716+00:00,0.0132,-0.9536,-0.022
2026-07-08 09:37:14.440020+00:00,-0.1161,-1.0697,0.0444
2026-07-08 09:37:14.440850+00:00,-0.0039,-0.9384,0.0278
2026-07-08 09:37:14.441524+00:00,-0.1449,-1.0126,-0.0166
2026-07-08 09:37:14.441773+00:00,-0.164,-1.119,0.0327
2026-07-08 09:37:14.441887+00:00,-0.0664,-0.8867,-0.0229
2026-07-08 09:37:14.503191+00:00,-0.1806,-1.0926,0.0464
2026-07-08 09:37:14.503596+00:00,-0.0556,-0.9589,0.002
2026-07-08 09:37:14.504083+00:00,-0.08,-1.0512,-0.0098
2026-07-08 09:37:14.504430+00:00,-0.1127,-0.9862,-0.0005
2026-07-08 09:37:14.504678+00:00,0.0,-0.8896,-0.0615
2026-07-08 09:37:14.504874+00:00,-0.0522,-0.9623,0.0376
2026-07-08 09:37:14.505183+00:00,-0.0903,-0.9218,-0.0185
2026-07-08 09:37:14.563372+00:00,-0.04,-1.0843,0.0503
2026-07-08 09:37:14.563841+00:00,-0.0952,-1.0014,-0.0039
2026-07-08 09:37:14.564334+00:00,-0.0756,-1.0604,0.0205
2026-07-08 09:37:14.564616+00:00,-0.0859,-0.9428,-0.0381
2026-07-08 09:37:14.564805+00:00,-0.1928,-0.937,-0.02
2026-07-08 09:37:14.565039+00:00,-0.0024,-1.017,0.0342
2026-07-08 09:37:14.627360+00:00,-0.1293,-0.9008,-0.0703
2026-07-08 09:37:14.627977+00:00,-0.1513,-1.1068,0.0234
2026-07-08 09:37:14.628431+00:00,0.0112,-0.9658,-0.0224
2026-07-08 09:37:14.628686+00:00,-0.1093,-1.078,0.0498
2026-07-08 09:37:14.628873+00:00,-0.0098,-0.954,-0.002
2026-07-08 09:37:14.629096+00:00,-0.1527,-1.0311,-0.019
2026-07-08 09:37:14.691118+00:00,-0.1669,-1.096,0.0278
2026-07-08 09:37:14.691691+00:00,-0.0717,-0.8716,-0.0312
2026-07-08 09:37:14.692022+00:00,-0.1786,-1.0878,0.0444
2026-07-08 09:37:14.692290+00:00,-0.0454,-0.9428,0.0024
2026-07-08 09:37:14.692592+00:00,-0.0752,-1.0712,0.0005
2026-07-08 09:37:14.692815+00:00,-0.0937,-0.9911,0.0029
2026-07-08 09:37:14.749593+00:00,-0.039,-0.9799,0.0024
2026-07-08 09:37:14.750255+00:00,-0.062,-0.9579,0.0351
2026-07-08 09:37:14.750842+00:00,-0.081,-0.9409,-0.0205
2026-07-08 09:37:14.751515+00:00,-0.0307,-1.0838,0.0478
2026-07-08 09:37:14.753858+00:00,-0.0883,-1.0067,0.0049
2026-07-08 09:37:14.754967+00:00,-0.081,-1.059,0.0132
2026-07-08 09:37:14.797189+00:00,-0.0961,-0.9394,-0.0439
2026-07-08 09:37:14.797505+00:00,-0.1845,-0.9394,-0.0195
2026-07-08 09:37:14.797726+00:00,-0.0063,-1.0136,0.0298
2026-07-08 09:37:14.798019+00:00,-0.1274,-0.9165,-0.0595
2026-07-08 09:37:14.798171+00:00,-0.1347,-1.1161,0.0376
2026-07-08 09:37:14.861887+00:00,0.0078,-0.9682,-0.0224
2026-07-08 09:37:14.862589+00:00,-0.1005,-1.0721,0.0512
2026-07-08 09:37:14.863187+00:00,-0.0137,-0.9501,0.0044
2026-07-08 09:37:14.863611+00:00,-0.1786,-1.0385,-0.0171
2026-07-08 09:37:14.864016+00:00,-0.1679,-1.0902,0.0317
2026-07-08 09:37:14.864328+00:00,-0.102,-0.8755,-0.0351
2026-07-08 09:37:14.864664+00:00,-0.1771,-1.0917,0.0434
2026-07-08 09:37:14.922032+00:00,-0.021,-0.9355,-0.0112
2026-07-08 09:37:14.922746+00:00,-0.0703,-1.0921,0.0054
2026-07-08 09:37:14.923507+00:00,-0.0942,-0.996,0.002
2026-07-08 09:37:14.923958+00:00,-0.0615,-1.0024,0.0176
2026-07-08 09:37:14.924523+00:00,-0.0888,-0.974,0.0044
2026-07-08 09:37:14.925314+00:00,-0.0825,-0.9467,-0.0298
2026-07-08 09:37:14.981824+00:00,-0.0078,-1.0702,0.0371
2026-07-08 09:37:14.982107+00:00,-0.0869,-0.9862,-0.0034
2026-07-08 09:37:14.982389+00:00,-0.0874,-1.0482,-0.0029
2026-07-08 09:37:14.982672+00:00,-0.1015,-0.9287,-0.0312
2026-07-08 09:37:14.982948+00:00,-0.1688,-0.9618,-0.0137
2026-07-08 09:37:14.983175+00:00,-0.0049,-1.0106,0.0337
2026-07-08 09:37:15.032319+00:00,-0.1186,-0.9228,-0.0517
2026-07-08 09:37:15.032986+00:00,-0.1225,-1.1112,0.041
2026-07-08 09:37:15.033276+00:00,0.0063,-0.9682,-0.0244
2026-07-08 09:37:15.033559+00:00,-0.0976,-1.0814,0.0556
2026-07-08 09:37:15.033748+00:00,-0.0171,-0.9579,0.0083
2026-07-08 09:37:15.098594+00:00,-0.1737,-1.0482,-0.022
2026-07-08 09:37:15.099090+00:00,-0.1659,-1.0912,0.0293
2026-07-08 09:37:15.099444+00:00,-0.0381,-0.873,-0.0332
2026-07-08 09:37:15.099710+00:00,-0.1801,-1.0853,0.0434
2026-07-08 09:37:15.099998+00:00,-0.0429,-0.9384,0.0932
2026-07-08 09:37:15.100331+00:00,-0.0742,-1.099,0.0068
2026-07-08 09:37:15.147392+00:00,-0.1054,-0.9892,0.0034
2026-07-08 09:37:15.147922+00:00,-0.0371,-0.9789,0.0024
2026-07-08 09:37:15.148262+00:00,-0.0561,-0.9555,0.0171
2026-07-08 09:37:15.148587+00:00,-0.0844,-0.9248,-0.0234
2026-07-08 09:37:15.148761+00:00,-0.0312,-1.0804,0.0517
2026-07-08 09:37:15.206006+00:00,-0.1005,-1.016,-0.001
2026-07-08 09:37:15.206391+00:00,-0.0839,-1.079,0.0332
2026-07-08 09:37:15.206567+00:00,-0.0805,-0.9496,-0.0381
2026-07-08 09:37:15.206803+00:00,-0.1991,-0.9389,-0.0234
2026-07-08 09:37:15.206999+00:00,-0.0049,-1.0199,0.0332
2026-07-08 09:37:15.265971+00:00,-0.1264,-0.8847,-0.0669
2026-07-08 09:37:15.267700+00:00,-0.1684,-1.096,0.0132
2026-07-08 09:37:15.268032+00:00,0.0195,-0.9057,-0.0166
2026-07-08 09:37:15.268568+00:00,-0.2338,-1.099,0.0459
2026-07-08 09:37:15.268940+00:00,0.0,-0.9716,-0.0039
2026-07-08 09:37:15.269604+00:00,-0.1269,-1.0277,-0.1069
2026-07-08 09:37:15.270481+00:00,-0.1523,-0.9379,0.0361
2026-07-08 09:37:15.327014+00:00,-0.0664,-0.8784,-0.0264
2026-07-08 09:37:15.327366+00:00,-0.1757,-1.0785,0.0429
2026-07-08 09:37:15.327694+00:00,-0.0712,-0.9682,-0.0229
2026-07-08 09:37:15.327957+00:00,-0.0825,-1.078,-0.0034
2026-07-08 09:37:15.328200+00:00,-0.1064,-0.974,-0.0107
2026-07-08 09:37:15.328461+00:00,-0.0288,-0.9628,-0.0112
2026-07-08 09:37:15.376328+00:00,-0.0264,-0.9775,0.0268
2026-07-08 09:37:15.376666+00:00,-0.1015,-0.9477,-0.0268
2026-07-08 09:37:15.376995+00:00,-0.0664,-1.0907,0.0634
2026-07-08 09:37:15.377234+00:00,-0.0961,-0.9989,-0.0093
2026-07-08 09:37:15.377439+00:00,-0.0766,-1.0658,0.0537
2026-07-08 09:37:15.440669+00:00,-0.0493,-0.9438,-0.0176
2026-07-08 09:37:15.441210+00:00,-0.1981,-0.956,-0.021
2026-07-08 09:37:15.441359+00:00,-0.121,-1.0551,0.0395
2026-07-08 09:37:15.441511+00:00,-0.1318,-0.8886,-0.0498
2026-07-08 09:37:15.441829+00:00,-0.1737,-1.1029,-0.082
2026-07-08 09:37:15.442015+00:00,0.0102,-0.9213,-0.0234
2026-07-08 09:37:15.507151+00:00,-0.0795,-1.0746,0.0278
2026-07-08 09:37:15.507516+00:00,-0.0181,-0.975,-0.0068
2026-07-08 09:37:15.507739+00:00,-0.1098,-1.0297,0.0239
2026-07-08 09:37:15.507977+00:00,-0.1244,-0.9599,0.0317
2026-07-08 09:37:15.508150+00:00,-0.063,-0.8774,-0.0264
2026-07-08 09:37:15.508338+00:00,-0.1557,-1.0609,0.0337
2026-07-08 09:37:15.508585+00:00,-0.0781,-0.9706,-0.0161
2026-07-08 09:37:15.565350+00:00,-0.0825,-1.0546,0.0005
2026-07-08 09:37:15.565832+00:00,-0.1049,-0.9892,-0.0137
2026-07-08 09:37:15.566194+00:00,-0.0317,-0.9682,-0.0088
2026-07-08 09:37:15.566521+00:00,-0.0122,-0.9862,0.0337
2026-07-08 09:37:15.566820+00:00,-0.1035,-0.9345,-0.0273
2026-07-08 09:37:15.567427+00:00,-0.0766,-1.1058,0.0664
2026-07-08 09:37:15.613520+00:00,-0.0498,-0.9916,-0.022
2026-07-08 09:37:15.614061+00:00,-0.0756,-1.0702,0.0566
2026-07-08 09:37:15.614431+00:00,-0.0483,-0.9443,-0.1166
2026-07-08 09:37:15.615046+00:00,-0.2001,-1.0629,-0.02
2026-07-08 09:37:15.615384+00:00,-0.1215,-1.057,0.0395
2026-07-08 09:37:15.661130+00:00,-0.1288,-0.8862,-0.059
2026-07-08 09:37:15.661826+00:00,-0.1762,-1.0926,0.0361
2026-07-08 09:37:15.662158+00:00,0.0093,-0.9233,-0.021
2026-07-08 09:37:15.662466+00:00,-0.0776,-1.0707,0.0307
2026-07-08 09:37:15.746340+00:00,-0.0107,-0.9697,-0.0083
2026-07-08 09:37:15.747023+00:00,-0.1074,-1.0214,0.0161
2026-07-08 09:37:15.747403+00:00,-0.1381,-0.9565,0.0356
2026-07-08 09:37:15.747685+00:00,-0.0717,-0.8921,-0.0185
2026-07-08 09:37:15.747885+00:00,-0.1615,-1.0795,0.0415
2026-07-08 09:37:15.748392+00:00,-0.0693,-0.9697,-0.0229
2026-07-08 09:37:15.748895+00:00,-0.0849,-1.0673,-0.0044
2026-07-08 09:37:15.806540+00:00,-0.1054,-0.9745,-0.0107
2026-07-08 09:37:15.807093+00:00,-0.1161,-0.954,-0.0107
2026-07-08 09:37:15.807471+00:00,-0.0332,-0.9814,0.0264
2026-07-08 09:37:15.807811+00:00,-0.0991,-0.956,-0.0176
2026-07-08 09:37:15.808095+00:00,-0.0644,-1.1224,0.0649
2026-07-08 09:37:15.808338+00:00,-0.0693,-0.9828,-0.0156
2026-07-08 09:37:15.808653+00:00,-0.0771,-1.0477,0.041
2026-07-08 09:37:15.808966+00:00,-0.059,-0.9126,-0.0068
2026-07-08 09:37:15.867716+00:00,-0.1942,-1.0487,-0.0185
2026-07-08 09:37:15.868359+00:00,-0.0932,-1.0546,0.04
2026-07-08 09:37:15.868594+00:00,-0.1342,-0.917,-0.0551
2026-07-08 09:37:15.868767+00:00,-0.1669,-1.1248,0.042
2026-07-08 09:37:15.868953+00:00,0.0161,-0.9257,-0.0259
2026-07-08 09:37:15.869107+00:00,-0.1074,-1.0653,0.04
2026-07-08 09:37:15.938348+00:00,-0.0049,-0.9389,-0.0117
2026-07-08 09:37:15.938859+00:00,-0.1352,-1.0077,0.0063
2026-07-08 09:37:15.939398+00:00,-0.1635,-0.9404,0.0415
2026-07-08 09:37:15.939669+00:00,-0.0576,-0.9008,-0.0181
2026-07-08 09:37:15.939776+00:00,-0.1313,-1.1087,0.0464
2026-07-08 09:37:15.939847+00:00,-0.0556,-0.9667,-0.022
2026-07-08 09:37:15.940124+00:00,-0.0805,-1.0736,-0.0893
2026-07-08 09:37:15.995388+00:00,-0.103,-0.9511,-0.0107
2026-07-08 09:37:15.995821+00:00,-0.0908,-0.9521,-0.0093
2026-07-08 09:37:15.996113+00:00,-0.0571,-0.9828,0.0264
2026-07-08 09:37:15.996408+00:00,-0.1005,-0.9755,-0.0088
2026-07-08 09:37:15.996682+00:00,-0.0493,-1.1278,0.0551
2026-07-08 09:37:15.996989+00:00,-0.1035,-0.9775,-0.0073
2026-07-08 09:37:16.056531+00:00,-0.0747,-1.0199,0.0068
2026-07-08 09:37:16.057045+00:00,-0.0805,-0.8926,-0.0268
2026-07-08 09:37:16.057489+00:00,-0.1801,-1.0272,-0.0132
2026-07-08 09:37:16.057793+00:00,-0.0586,-1.057,0.0454
2026-07-08 09:37:16.058069+00:00,-0.1401,-0.9584,-0.0473
2026-07-08 09:37:16.058278+00:00,-0.1454,-1.1522,0.0522
2026-07-08 09:37:16.113527+00:00,0.0142,-0.9243,-0.039
2026-07-08 09:37:16.113994+00:00,-0.1405,-1.0331,0.0361
2026-07-08 09:37:16.114375+00:00,-0.0756,-0.9067,-0.0166
2026-07-08 09:37:16.114623+00:00,-0.1728,-1.0146,-0.0059
2026-07-08 09:37:16.114866+00:00,-0.1713,-0.9658,0.0522
2026-07-08 09:37:16.115005+00:00,-0.0493,-0.9843,-0.019
2026-07-08 09:37:16.163195+00:00,-0.0166,-1.1087,0.0537
2026-07-08 09:37:16.163878+00:00,-0.0161,-0.9233,-0.0327
2026-07-08 09:37:16.164169+00:00,-0.0732,-1.0707,0.0551
2026-07-08 09:37:16.164459+00:00,-0.0859,-0.9296,-0.0098
2026-07-08 09:37:16.164666+00:00,-0.0678,-1.0175,0.0239
2026-07-08 09:37:16.226888+00:00,-0.1059,-0.9994,0.0024
2026-07-08 09:37:16.227145+00:00,-0.0791,-1.0087,-0.002
2026-07-08 09:37:16.227348+00:00,-0.0166,-1.1053,0.0366
2026-07-08 09:37:16.227600+00:00,-0.1342,-0.9287,-0.0307
2026-07-08 09:37:16.227955+00:00,-0.0883,-1.0175,-0.0073
2026-07-08 09:37:16.228236+00:00,-0.1039,-0.8852,-0.0434
2026-07-08 09:37:16.279465+00:00,-0.1039,-1.0302,0.001
2026-07-08 09:37:16.280092+00:00,-0.0156,-1.0404,0.0395
2026-07-08 09:37:16.280371+00:00,-0.041,-0.9999,0.0039
2026-07-08 09:37:16.280557+00:00,-0.0425,-1.1239,0.0547
2026-07-08 09:37:16.280862+00:00,-0.101,-0.895,-0.0176
2026-07-08 09:37:16.287257+00:00,-0.1737,-1.1097,-0.0122
2026-07-08 09:37:16.351643+00:00,-0.002,-0.9008,-0.0405
2026-07-08 09:37:16.351862+00:00,-0.1674,-1.0453,0.0102
2026-07-08 09:37:16.352171+00:00,-0.0371,-0.9658,-0.0015
2026-07-08 09:37:16.352521+00:00,-0.1044,-1.0355,-0.0185
2026-07-08 09:37:16.352980+00:00,-0.1376,-1.1322,0.0381
2026-07-08 09:37:16.353348+00:00,-0.0234,-0.8901,-0.0273
2026-07-08 09:37:16.405662+00:00,-0.164,-1.0546,0.0361
2026-07-08 09:37:16.406060+00:00,-0.0551,-0.9121,-0.0034
2026-07-08 09:37:16.406555+00:00,-0.0878,-1.0526,-0.0054
2026-07-08 09:37:16.406804+00:00,-0.103,-1.0126,0.0078
2026-07-08 09:37:16.407032+00:00,-0.0508,-1.018,0.0205
2026-07-08 09:37:16.407328+00:00,-0.0834,-0.996,0.0381
2026-07-08 09:37:16.455531+00:00,-0.0825,-0.9848,-0.0259
2026-07-08 09:37:16.456185+00:00,-0.1386,-1.0536,0.0303
2026-07-08 09:37:16.456366+00:00,-0.0693,-0.9472,-0.0215
2026-07-08 09:37:16.456469+00:00,-0.0898,-1.037,-0.002
2026-07-08 09:37:16.456556+00:00,-0.1078,-0.9213,0.0015
2026-07-08 09:37:16.516552+00:00,-0.101,-1.0043,0.0054
2026-07-08 09:37:16.517050+00:00,-0.0639,-1.0077,0.0322
2026-07-08 09:37:16.517261+00:00,-0.0839,-0.978,-0.0044
2026-07-08 09:37:16.517343+00:00,-0.021,-1.0858,0.0386
2026-07-08 09:37:16.517410+00:00,-0.1298,-0.9623,-0.0088
2026-07-08 09:37:16.517505+00:00,-0.1005,-1.0355,-0.0093
2026-07-08 09:37:16.570909+00:00,-0.1127,-0.9223,-0.0322
2026-07-08 09:37:16.571335+00:00,-0.1088,-1.0634,0.0
2026-07-08 09:37:16.571884+00:00,-0.0132,-1.0082,0.0415
2026-07-08 09:37:16.572132+00:00,-0.0874,-0.9784,-0.0044
2026-07-08 09:37:16.572482+00:00,-0.0215,-1.0951,0.039
2026-07-08 09:37:16.637107+00:00,-0.1235,-0.8945,-0.0122
2026-07-08 09:37:16.637969+00:00,-0.163,-1.0321,-0.0137
2026-07-08 09:37:16.639141+00:00,-0.1025,-0.9228,-0.0332
2026-07-08 09:37:16.640683+00:00,-0.1152,-1.0599,0.0425
2026-07-08 09:37:16.642819+00:00,-0.0093,-0.9487,0.1191
2026-07-08 09:37:16.644302+00:00,-0.1684,-1.0487,-0.0034
2026-07-08 09:37:16.691575+00:00,-0.1596,-1.0931,0.0356
2026-07-08 09:37:16.692158+00:00,-0.1274,-0.8994,-0.0425
2026-07-08 09:37:16.692462+00:00,-0.163,-1.0921,0.04
2026-07-08 09:37:16.692731+00:00,0.0229,-0.894,-0.0278
2026-07-08 09:37:16.693059+00:00,-0.1186,-1.0716,0.0532
2026-07-08 09:37:16.693426+00:00,-0.0122,-0.9487,-0.0034
2026-07-08 09:37:16.693705+00:00,-0.1747,-1.0526,0.0039
2026-07-08 09:37:16.738640+00:00,-0.1484,-0.9975,0.0322
2026-07-08 09:37:16.739077+00:00,-0.0273,-0.8974,-0.0522
2026-07-08 09:37:16.739414+00:00,-0.1591,-1.1,0.0361
2026-07-08 09:37:16.739698+00:00,0.0146,-0.8921,-0.0273
2026-07-08 09:37:16.786973+00:00,-0.1357,-1.0624,0.06
2026-07-08 09:37:16.787251+00:00,-0.0747,-0.9477,0.0034
2026-07-08 09:37:16.787613+00:00,-0.2259,-1.0604,-0.001
2026-07-08 09:37:16.787905+00:00,-0.124,-0.9999,0.0073
2026-07-08 09:37:16.788431+00:00,-0.0288,-0.9858,-0.1215
2026-07-08 09:37:16.844864+00:00,-0.0786,-0.976,0.0356
2026-07-08 09:37:16.845232+00:00,-0.0752,-0.8906,-0.0234
2026-07-08 09:37:16.845535+00:00,-0.1488,-1.0668,0.0351
2026-07-08 09:37:16.845821+00:00,-0.0669,-0.9618,-0.02
2026-07-08 09:37:16.846153+00:00,-0.0971,-1.0741,-0.0059
2026-07-08 09:37:16.846443+00:00,-0.1088,-0.9906,0.0039
2026-07-08 09:37:16.894025+00:00,-0.0551,-0.996,0.0146
2026-07-08 09:37:16.894595+00:00,-0.1054,-0.9672,-0.0122
2026-07-08 09:37:16.894830+00:00,-0.0727,-0.9521,-0.0205
2026-07-08 09:37:16.895083+00:00,-0.002,-1.0726,0.0449
2026-07-08 09:37:16.895424+00:00,-0.0483,-0.9384,-0.0298
2026-07-08 09:37:16.941026+00:00,-0.0825,-1.1122,0.0478
2026-07-08 09:37:16.941425+00:00,-0.0947,-0.9941,-0.0078
2026-07-08 09:37:16.941776+00:00,-0.0727,-1.0004,0.0264
2026-07-08 09:37:16.941997+00:00,-0.2108,-0.9409,-0.022
2026-07-08 09:37:16.942186+00:00,-0.0503,-0.9384,-0.0112
2026-07-08 09:37:16.991418+00:00,-0.0137,-1.0292,0.0264
2026-07-08 09:37:16.991715+00:00,-0.1166,-0.9667,-0.0371
2026-07-08 09:37:16.991982+00:00,-0.061,-1.0995,0.0644
2026-07-08 09:37:16.992281+00:00,-0.08,-0.9687,0.002
2026-07-08 09:37:16.992609+00:00,-0.0996,-1.0443,0.0024
2026-07-08 09:37:17.056246+00:00,-0.1059,-0.9262,-0.0337
2026-07-08 09:37:17.056647+00:00,-0.1215,-0.0386,-0.0181
2026-07-08 09:37:17.056962+00:00,-0.0483,-0.9789,0.0312
2026-07-08 09:37:17.057227+00:00,-0.0927,-0.9609,-0.0107
2026-07-08 09:37:17.057474+00:00,-0.0283,-1.0882,0.0459
2026-07-08 09:37:17.057742+00:00,-0.1332,-0.9906,-0.0005
2026-07-08 09:37:17.103129+00:00,-0.0981,-1.0668,0.0137
2026-07-08 09:37:17.103621+00:00,-0.1025,-0.9418,-0.0259
2026-07-08 09:37:17.104204+00:00,-0.0722,-1.0512,-0.001
2026-07-08 09:37:17.104536+00:00,-0.0459,-0.9687,-0.0098
2026-07-08 09:37:17.104768+00:00,-0.0561,-0.9404,-0.0195
2026-07-08 09:37:17.169337+00:00,-0.0029,-1.0326,0.039
2026-07-08 09:37:17.169774+00:00,-0.1401,-0.9589,-0.0288
2026-07-08 09:37:17.170135+00:00,-0.0986,-1.1268,0.0664
2026-07-08 09:37:17.170464+00:00,-0.062,-0.9799,-0.0205
2026-07-08 09:37:17.170773+00:00,-0.0839,-1.0399,0.0234
2026-07-08 09:37:17.171013+00:00,-0.0976,-0.896,-0.0254
2026-07-08 09:37:17.227319+00:00,-0.1342,-1.0448,-0.02
2026-07-08 09:37:17.227820+00:00,-0.0034,-1.0009,0.0327
2026-07-08 09:37:17.228166+00:00,-0.1088,-0.9731,-0.0078
2026-07-08 09:37:17.228506+00:00,-0.0278,-1.1053,0.0381
2026-07-08 09:37:17.228725+00:00,-0.1352,-0.9272,0.0
2026-07-08 09:37:17.229210+00:00,-0.1557,-1.0604,0.0029
2026-07-08 09:37:17.285714+00:00,-0.1059,-0.9282,-0.0307
2026-07-08 09:37:17.286188+00:00,-0.0791,-1.0463,0.0561
2026-07-08 09:37:17.286374+00:00,-0.0346,-0.9048,-0.0024
2026-07-08 09:37:17.286474+00:00,-0.1825,-0.9418,-0.0195
2026-07-08 09:37:17.286553+00:00,-0.0068,-1.0385,0.0356
2026-07-08 09:37:17.287044+00:00,-0.1381,-0.9482,-0.0468
2026-07-08 09:37:17.344571+00:00,-0.0942,-1.1317,0.0439
2026-07-08 09:37:17.345072+00:00,-0.0581,-0.9087,-0.0185
2026-07-08 09:37:17.345669+00:00,-0.1688,-1.0463,0.0176
2026-07-08 09:37:17.345822+00:00,-0.0971,-0.9004,-0.0273
2026-07-08 09:37:17.346119+00:00,-0.1347,-1.059,0.0278
2026-07-08 09:37:17.346448+00:00,-0.0059,-0.9301,0.0337
2026-07-08 09:37:17.395292+00:00,-0.1469,-0.9579,-0.0078
2026-07-08 09:37:17.395911+00:00,-0.0278,-1.0902,0.0351
2026-07-08 09:37:17.396203+00:00,-0.1381,-0.9252,-0.0483
2026-07-08 09:37:17.396494+00:00,-0.1596,-1.1434,0.0088
2026-07-08 09:37:17.396827+00:00,0.0044,-0.936,-0.0239
2026-07-08 09:37:17.456031+00:00,-0.0737,-1.039,0.0625
2026-07-08 09:37:17.456675+00:00,-0.0395,-0.8901,-0.0078
2026-07-08 09:37:17.457125+00:00,-0.182,-1.0355,-0.0278
2026-07-08 09:37:17.457648+00:00,-0.0688,-1.0487,0.0322
2026-07-08 09:37:17.458012+00:00,-0.1962,-0.9555,-0.041
2026-07-08 09:37:17.458342+00:00,-0.1,-1.1322,0.0566
2026-07-08 09:37:17.502778+00:00,-0.0566,-0.9165,-0.0205
2026-07-08 09:37:17.503395+00:00,-0.164,-1.0126,0.0171
2026-07-08 09:37:17.504017+00:00,-0.0176,-0.895,-0.0312
2026-07-08 09:37:17.504536+00:00,-0.1396,-1.0336,0.0185
2026-07-08 09:37:17.504826+00:00,-0.0083,-0.9062,-0.0215
2026-07-08 09:37:17.551299+00:00,-0.1425,-0.9867,-0.0068
2026-07-08 09:37:17.551931+00:00,-0.1566,-1.1287,0.0405
2026-07-08 09:37:17.552208+00:00,-0.1283,-0.9453,-0.0259
2026-07-08 09:37:17.552489+00:00,-0.1596,-1.1478,0.0605
2026-07-08 09:37:17.613867+00:00,0.0063,-0.957,-0.0337
2026-07-08 09:37:17.614393+00:00,-0.1337,-1.0253,0.0439
2026-07-08 09:37:17.615044+00:00,-0.0156,-0.8886,-0.021
2026-07-08 09:37:17.615475+00:00,-0.1728,-0.9945,-0.0259
2026-07-08 09:37:17.616005+00:00,-0.1088,-0.9389,0.0439
2026-07-08 09:37:17.616409+00:00,-0.0508,-0.9701,-0.0454
2026-07-08 09:37:17.616781+00:00,-0.2196,-1.1683,0.0551
2026-07-08 09:37:17.662553+00:00,-0.0107,-0.9462,-0.0005
2026-07-08 09:37:17.663000+00:00,-0.1552,-1.1283,0.0498
2026-07-08 09:37:17.663403+00:00,-0.0493,-0.978,-0.0215
2026-07-08 09:37:17.663747+00:00,-0.0893,-1.0058,-0.02
2026-07-08 09:37:17.664095+00:00,-0.0439,-0.9218,-0.0239
2026-07-08 09:37:17.725960+00:00,-0.0874,-0.9731,0.0054
2026-07-08 09:37:17.726739+00:00,-0.1444,-0.937,0.0581
2026-07-08 09:37:17.726895+00:00,-0.0581,-0.9384,-0.0029
2026-07-08 09:37:17.726981+00:00,-0.1674,-1.1395,0.0688
2026-07-08 09:37:17.727054+00:00,-0.0181,-0.9575,-0.022
2026-07-08 09:37:17.727361+00:00,-0.08,-1.12,0.0024
2026-07-08 09:37:17.797166+00:00,-0.0688,-0.9082,-0.0298
2026-07-08 09:37:17.797591+00:00,-0.1327,-0.976,-0.0063
2026-07-08 09:37:17.797792+00:00,-0.163,-0.9462,-0.0386
2026-07-08 09:37:17.797893+00:00,-0.0405,-0.9453,-0.0107
2026-07-08 09:37:17.798156+00:00,-0.0434,-1.1546,0.062
2026-07-08 09:37:17.798414+00:00,0.0083,-0.9536,-0.0112
2026-07-08 09:37:17.798585+00:00,-0.1054,-1.1058,0.0581
2026-07-08 09:37:17.853625+00:00,-0.0698,-0.977,-0.0254
2026-07-08 09:37:17.854015+00:00,-0.0991,-0.9013,-0.0137
2026-07-08 09:37:17.854640+00:00,-0.102,-0.9531,-0.0283
2026-07-08 09:37:17.854835+00:00,-0.0317,-0.9521,-0.0166
2026-07-08 09:37:17.855430+00:00,-0.0615,-1.0063,0.0322
2026-07-08 09:37:17.855783+00:00,-0.0947,-0.9984,-0.0073
2026-07-08 09:37:17.902356+00:00,-0.0244,-1.1039,0.0556
2026-07-08 09:37:17.902724+00:00,-0.0654,-0.9726,-0.0049
2026-07-08 09:37:17.903098+00:00,-0.1005,-1.0409,-0.0015
2026-07-08 09:37:17.903689+00:00,-0.1044,-0.8955,-0.02
2026-07-08 09:37:17.903969+00:00,-0.0864,-0.9516,-0.0156
2026-07-08 09:37:17.964293+00:00,-0.0776,-0.9877,0.0205
2026-07-08 09:37:17.965151+00:00,-0.0888,-0.9877,-0.0029
2026-07-08 09:37:17.965505+00:00,-0.019,-1.1122,0.0517
2026-07-08 09:37:17.965923+00:00,-0.1459,-0.9765,-0.0078
2026-07-08 09:37:17.966507+00:00,-0.0273,-1.0609,0.0137
2026-07-08 09:37:17.966941+00:00,-0.0996,-0.9038,-0.0429
2026-07-08 09:37:18.012327+00:00,-0.0776,-1.0136,-0.0107
2026-07-08 09:37:18.012688+00:00,-0.0268,-0.9955,0.0127
2026-07-08 09:37:18.012828+00:00,-0.0561,-0.9809,-0.0068
2026-07-08 09:37:18.012997+00:00,-0.0171,-1.1009,0.0512
2026-07-08 09:37:18.013404+00:00,-0.1566,-0.9823,-0.042
2026-07-08 09:37:18.059864+00:00,-0.141,-1.1673,0.0224
2026-07-08 09:37:18.060269+00:00,0.0024,-0.9116,-0.0405
2026-07-08 09:37:18.060690+00:00,-0.0566,-1.0053,0.0444
2026-07-08 09:37:18.061095+00:00,-0.041,-0.8696,-0.0205
2026-07-08 09:37:18.124371+00:00,-0.1791,-1.0014,-0.0063
2026-07-08 09:37:18.124864+00:00,-0.0956,-1.0956,0.0522
2026-07-08 09:37:18.125144+00:00,-0.1503,-0.9814,-0.0425
2026-07-08 09:37:18.125250+00:00,-0.1347,-1.1639,0.0556
2026-07-08 09:37:18.125409+00:00,-0.0049,-0.9321,-0.0381
2026-07-08 09:37:18.125594+00:00,-0.1537,-1.0067,0.0444
2026-07-08 09:37:18.125881+00:00,-0.039,-0.8764,-0.0181
2026-07-08 09:37:18.177492+00:00,-0.183,-1.0077,-0.0239
2026-07-08 09:37:18.178028+00:00,-0.08,-0.9506,0.0503
2026-07-08 09:37:18.178315+00:00,-0.0669,-0.9799,-0.0425
2026-07-08 09:37:18.178511+00:00,-0.1054,-1.1673,0.0556
2026-07-08 09:37:18.178863+00:00,-0.0063,-0.9321,-0.0049
2026-07-08 09:37:18.230302+00:00,-0.1581,-1.1053,0.0512
2026-07-08 09:37:18.230696+00:00,-0.0547,-0.9472,-0.0185
2026-07-08 09:37:18.231080+00:00,-0.0903,-1.0087,-0.0224
2026-07-08 09:37:18.231475+00:00,-0.0839,-0.9565,-0.0142
2026-07-08 09:37:18.231919+00:00,-0.0634,-0.9814,0.0063
2026-07-08 09:37:18.277590+00:00,-0.101,-0.9848,0.0547
2026-07-08 09:37:18.277918+00:00,-0.0761,-0.9287,-0.0063
2026-07-08 09:37:18.278010+00:00,-0.1513,-1.1014,0.0498
2026-07-08 09:37:18.278275+00:00,-0.0556,-0.9526,-0.0273
2026-07-08 09:37:18.278483+00:00,-0.0922,-1.0536,-0.0239
2026-07-08 09:37:18.343555+00:00,-0.0976,-0.9594,-0.0083
2026-07-08 09:37:18.344262+00:00,-0.063,-0.9838,0.0059
2026-07-08 09:37:18.344565+00:00,-0.1015,-0.9926,0.002
2026-07-08 09:37:18.344793+00:00,-0.0737,-0.9936,-0.0054
2026-07-08 09:37:18.345183+00:00,-0.0132,-1.0965,0.0493
2026-07-08 09:37:18.404331+00:00,-0.1503,-0.9448,-0.0268
2026-07-08 09:37:18.419757+00:00,-0.0937,-1.0482,0.0278
2026-07-08 09:37:18.420010+00:00,-0.0986,-0.9062,-0.0439
2026-07-08 09:37:18.420102+00:00,-0.0615,-1.0077,0.0083
2026-07-08 09:37:18.420311+00:00,-0.0371,-0.998,0.0088
2026-07-08 09:37:18.420608+00:00,-0.0742,-0.9945,-0.0015
2026-07-08 09:37:18.421285+00:00,-0.0132,-1.0921,0.0493
2026-07-08 09:37:18.421736+00:00,-0.1498,-0.976,-0.0273
2026-07-08 09:37:18.454149+00:00,-0.1381,-1.0555,0.0229
2026-07-08 09:37:18.454505+00:00,-0.0981,-0.913,-0.042
2026-07-08 09:37:18.454895+00:00,-0.0654,-1.0097,0.0483
2026-07-08 09:37:18.455591+00:00,-0.0381,-0.8862,0.0083
2026-07-08 09:37:18.456086+00:00,-0.184,-0.9897,-0.0073
2026-07-08 09:37:18.499299+00:00,-0.0151,-1.0926,0.0488
2026-07-08 09:37:18.499679+00:00,-0.1479,-0.9687,-0.0429
2026-07-08 09:37:18.499950+00:00,-0.1381,-1.1527,0.021
2026-07-08 09:37:18.500060+00:00,0.0083,-0.9223,-0.0376
2026-07-08 09:37:18.562541+00:00,-0.0239,-1.015,0.0478
2026-07-08 09:37:18.563089+00:00,-0.0361,-0.8847,-0.0122
2026-07-08 09:37:18.563322+00:00,-0.1845,-1.0224,-0.022
2026-07-08 09:37:18.563510+00:00,-0.1078,-0.9672,0.0493
2026-07-08 09:37:18.563861+00:00,-0.0498,-0.9658,-0.0454
2026-07-08 09:37:18.564167+00:00,-0.143,-1.1453,0.0498
2026-07-08 09:37:18.564389+00:00,0.0093,-0.9209,-0.0122
2026-07-08 09:37:18.618013+00:00,-0.1498,-1.0814,0.0449
2026-07-08 09:37:18.618652+00:00,-0.0673,-0.8965,-0.0146
2026-07-08 09:37:18.619065+00:00,-0.1835,-1.0243,-0.019
2026-07-08 09:37:18.619645+00:00,-0.1098,-0.9726,-0.0068
2026-07-08 09:37:18.620119+00:00,-0.0493,-0.9838,-0.0434
2026-07-08 09:37:18.677603+00:00,-0.0849,-1.1468,0.0508
2026-07-08 09:37:18.678045+00:00,0.0107,-0.9204,-0.0117
2026-07-08 09:37:18.678489+00:00,-0.1493,-1.0814,0.0439
2026-07-08 09:37:18.678821+00:00,-0.0669,-0.9536,-0.0142
2026-07-08 09:37:18.679162+00:00,-0.0956,-1.0448,-0.0205
2026-07-08 09:37:18.679438+00:00,-0.101,-0.9706,-0.0078
2026-07-08 09:37:18.739223+00:00,-0.0415,-0.9809,-0.001
2026-07-08 09:37:18.739588+00:00,-0.0791,-0.9931,0.0205
2026-07-08 09:37:18.740019+00:00,-0.0878,-0.9867,-0.0132
2026-07-08 09:37:18.740314+00:00,-0.0176,-1.078,0.041
2026-07-08 09:37:18.740503+00:00,-0.0693,-0.9604,-0.0137
2026-07-08 09:37:18.740702+00:00,-0.0937,-1.0438,0.001
2026-07-08 09:37:18.802095+00:00,-0.1069,-0.9111,-0.0059
2026-07-08 09:37:18.802798+00:00,-0.0893,-0.9789,-0.0005
2026-07-08 09:37:18.803087+00:00,-0.0747,-0.9984,0.0283
2026-07-08 09:37:18.803497+00:00,-0.0893,-0.9921,-0.0044
2026-07-08 09:37:18.803758+00:00,-0.0156,-1.1068,0.0439
2026-07-08 09:37:18.804012+00:00,-0.1352,-0.9614,-0.0107
2026-07-08 09:37:18.804313+00:00,-0.0971,-1.0419,-0.002
2026-07-08 09:37:18.850203+00:00,-0.1074,-0.9072,-0.0415
2026-07-08 09:37:18.850627+00:00,-0.0932,-1.0302,-0.0063
2026-07-08 09:37:18.850931+00:00,-0.0142,-1.0321,0.0337
2026-07-08 09:37:18.851059+00:00,-0.0508,-0.9911,-0.0034
2026-07-08 09:37:18.899669+00:00,-0.0205,-1.1122,0.0488
2026-07-08 09:37:18.900041+00:00,-0.1396,-0.9438,-0.0376
2026-07-08 09:37:18.900299+00:00,-0.163,-1.1361,-0.0068
2026-07-08 09:37:18.900704+00:00,0.0176,-0.8984,-0.0386
2026-07-08 09:37:18.901110+00:00,-0.1035,-1.0336,0.0395
2026-07-08 09:37:18.965779+00:00,-0.0073,-0.9101,-0.0146
2026-07-08 09:37:18.966365+00:00,-0.1698,-1.0224,-0.0015
2026-07-08 09:37:18.966660+00:00,-0.1547,-1.1204,0.0454
2026-07-08 09:37:18.967159+00:00,-0.1235,-0.937,-0.0293
2026-07-08 09:37:18.968114+00:00,-0.1674,-1.14,0.0581
2026-07-08 09:37:18.968531+00:00,0.021,-0.9301,-0.0366
2026-07-08 09:37:18.969454+00:00,-0.1069,-1.0346,0.0293
2026-07-08 09:37:19.027101+00:00,-0.0063,-0.9087,-0.019
2026-07-08 09:37:19.027602+00:00,-0.1542,-1.0136,-0.0039
2026-07-08 09:37:19.027972+00:00,-0.1615,-0.9643,0.0459
2026-07-08 09:37:19.028343+00:00,-0.0337,-0.9648,-0.0224
2026-07-08 09:37:19.028573+00:00,-0.1635,-1.1312,0.0556
2026-07-08 09:37:19.028801+00:00,0.0044,-0.9365,-0.02
2026-07-08 09:37:19.089393+00:00,-0.0903,-1.0887,0.0527
2026-07-08 09:37:19.089733+00:00,-0.082,-0.9706,-0.0239
2026-07-08 09:37:19.090423+00:00,-0.0893,-1.0063,0.0024
2026-07-08 09:37:19.090722+00:00,-0.1645,-0.9579,-0.0356
2026-07-08 09:37:19.090846+00:00,-0.0444,-0.9638,-0.0122
2026-07-08 09:37:19.090980+00:00,-0.0229,-1.0268,0.0615
2026-07-08 09:37:19.142965+00:00,-0.1118,-0.9404,-0.022
2026-07-08 09:37:19.143363+00:00,-0.0805,-1.0951,0.0634
2026-07-08 09:37:19.143883+00:00,-0.0815,-0.9623,-0.0205
2026-07-08 09:37:19.144165+00:00,-0.081,-1.016,0.0054
2026-07-08 09:37:19.144477+00:00,-0.0888,-0.9526,-0.0386
2026-07-08 09:37:19.144760+00:00,0.0,-0.9667,-0.0068
2026-07-08 09:37:19.193126+00:00,-0.0176,-1.0424,0.0444
2026-07-08 09:37:19.193780+00:00,-0.1303,-0.9916,-0.0273
2026-07-08 09:37:19.194039+00:00,-0.0864,-1.0282,0.0644
2026-07-08 09:37:19.194382+00:00,-0.0586,-0.956,-0.0278
2026-07-08 09:37:19.194601+00:00,-0.0722,-1.0087,0.0234
2026-07-08 09:37:19.245353+00:00,-0.0742,-0.8804,-0.0244
2026-07-08 09:37:19.245617+00:00,-0.1752,-1.0219,-0.0088
2026-07-08 09:37:19.246085+00:00,-0.0459,-1.0594,0.0454
2026-07-08 09:37:19.246353+00:00,-0.1405,-0.9775,-0.0366
2026-07-08 09:37:19.246771+00:00,-0.1176,-1.1536,0.0522
2026-07-08 09:37:19.310205+00:00,-0.0283,-0.9272,-0.0327
2026-07-08 09:37:19.310765+00:00,-0.1645,-1.0165,0.0425
2026-07-08 09:37:19.310944+00:00,-0.0439,-0.8852,-0.0161
2026-07-08 09:37:19.311049+00:00,-0.1845,-1.0165,-0.0171
2026-07-08 09:37:19.311285+00:00,-0.081,-0.9584,0.0488
2026-07-08 09:37:19.311661+00:00,-0.0576,-0.9701,-0.0468
2026-07-08 09:37:19.363788+00:00,-0.143,-1.1624,0.0527
2026-07-08 09:37:19.364319+00:00,0.0098,-0.9301,-0.0083
2026-07-08 09:37:19.364701+00:00,-0.1581,-1.1,0.0483
2026-07-08 09:37:19.364941+00:00,-0.0654,-0.9643,-0.0156
2026-07-08 09:37:19.365362+00:00,-0.2137,-1.0067,-0.0224
2026-07-08 09:37:19.366000+00:00,-0.1254,-0.9653,-0.0088
2026-07-08 09:37:19.421296+00:00,-0.0317,-0.9662,-0.0088
2026-07-08 09:37:19.421805+00:00,-0.0722,-0.9936,0.0537
2026-07-08 09:37:19.421959+00:00,-0.0971,-0.9355,-0.0102
2026-07-08 09:37:19.422038+00:00,-0.1254,-1.0931,0.0493
2026-07-08 09:37:19.422387+00:00,-0.0727,-0.9804,-0.0015
2026-07-08 09:37:19.422995+00:00,-0.0878,-1.0272,-0.0088
2026-07-08 09:37:19.472790+00:00,-0.1015,-0.957,-0.0283
2026-07-08 09:37:19.473276+00:00,-0.0337,-0.9623,-0.0137
2026-07-08 09:37:19.473604+00:00,-0.042,-1.0126,0.0405
2026-07-08 09:37:19.473906+00:00,-0.1088,-1.0024,-0.0181
2026-07-08 09:37:19.533206+00:00,-0.0493,-1.0941,0.0561
2026-07-08 09:37:19.533858+00:00,-0.0776,-0.9692,-0.0098
2026-07-08 09:37:19.534092+00:00,-0.081,-1.0063,-0.0054
2026-07-08 09:37:19.534235+00:00,-0.0913,-0.8745,-0.042
2026-07-08 09:37:19.534661+00:00,-0.1542,-0.9701,-0.0102
2026-07-08 09:37:19.535088+00:00,-0.0171,-1.0409,0.0425
2026-07-08 09:37:19.535706+00:00,-0.1259,-0.9897,-0.02
2026-07-08 09:37:19.579943+00:00,-0.0849,-1.1683,0.0542
2026-07-08 09:37:19.580327+00:00,-0.0532,-0.9233,-0.0322
2026-07-08 09:37:19.580639+00:00,-0.1732,-1.0175,0.0288
2026-07-08 09:37:19.580933+00:00,-0.0747,-0.8745,-0.0273
2026-07-08 09:37:19.629941+00:00,-0.1776,-1.0214,-0.0137
2026-07-08 09:37:19.630544+00:00,-0.0581,-0.9453,0.0459
2026-07-08 09:37:19.630980+00:00,-0.0683,-0.9731,-0.0425
2026-07-08 09:37:19.631251+00:00,-0.1269,-1.1668,0.0532
2026-07-08 09:37:19.631551+00:00,-0.0024,-0.9296,-0.0088
2026-07-08 09:37:19.678029+00:00,-0.1576,-1.1004,0.0464
2026-07-08 09:37:19.678290+00:00,-0.0634,-0.8882,-0.0122
2026-07-08 09:37:19.678599+00:00,-0.183,-1.0116,-0.0234
2026-07-08 09:37:19.678945+00:00,-0.1113,-0.9555,-0.0102
2026-07-08 09:37:19.679214+00:00,-0.0366,-0.9687,-0.0395
2026-07-08 09:37:19.744806+00:00,-0.0771,-1.1551,0.0537
2026-07-08 09:37:19.745433+00:00,0.0317,-0.9355,-0.0083
2026-07-08 09:37:19.745896+00:00,-0.1322,-1.0936,0.0483
2026-07-08 09:37:19.746406+00:00,-0.0737,-0.9731,-0.0073
2026-07-08 09:37:19.746773+00:00,-0.0966,-1.0307,-0.0161
2026-07-08 09:37:19.747003+00:00,-0.1015,-0.9716,-0.021
2026-07-08 09:37:19.747329+00:00,-0.0298,-0.957,-0.0107
2026-07-08 09:37:19.816847+00:00,-0.0488,-1.0048,0.039
2026-07-08 09:37:19.817530+00:00,-0.1093,-0.998,-0.0146
2026-07-08 09:37:19.818105+00:00,-0.0473,-1.098,0.0547
2026-07-08 09:37:19.818553+00:00,-0.0805,-0.9687,-0.0049
2026-07-08 09:37:19.818830+00:00,-0.0869,-1.0053,-0.0102
2026-07-08 09:37:19.819143+00:00,-0.0976,-0.8691,-0.0386
2026-07-08 09:37:19.819434+00:00,-0.1401,-0.9653,-0.0093
2026-07-08 09:37:19.870114+00:00,-0.0205,-1.0375,0.0444
2026-07-08 09:37:19.870541+00:00,-0.1249,-1.0033,-0.0073
2026-07-08 09:37:19.870951+00:00,-0.0844,-1.1688,0.0634
2026-07-08 09:37:19.871171+00:00,-0.0605,-0.9282,-0.0293
2026-07-08 09:37:19.871550+00:00,-0.0483,-1.0024,0.0161
2026-07-08 09:37:19.954865+00:00,-0.08,-0.8647,-0.0283
2026-07-08 09:37:19.955457+00:00,-0.1732,-1.0141,-0.0137
2026-07-08 09:37:19.955836+00:00,-0.0425,-0.9394,0.0493
2026-07-08 09:37:19.956162+00:00,-0.0776,-0.998,-0.0298
2026-07-08 09:37:19.956665+00:00,-0.1166,-1.1663,0.0542
2026-07-08 09:37:19.957021+00:00,-0.0229,-0.9331,-0.0068
2026-07-08 09:37:19.957208+00:00,-0.1591,-1.098,0.0425
2026-07-08 09:37:20.010087+00:00,-0.0566,-0.8794,-0.0176
2026-07-08 09:37:20.010690+00:00,-0.1864,-1.0141,-0.0239
2026-07-08 09:37:20.010936+00:00,-0.0947,-0.9672,-0.0098
2026-07-08 09:37:20.011118+00:00,-0.0547,-0.9809,-0.0425
2026-07-08 09:37:20.011480+00:00,-0.0869,-1.1605,0.0586
2026-07-08 09:37:20.011698+00:00,0.0093,-0.9345,-0.0059
2026-07-08 09:37:20.011965+00:00,-0.1435,-1.0873,0.0439
2026-07-08 09:37:20.057868+00:00,-0.0698,-0.9662,-0.0166
2026-07-08 09:37:20.058235+00:00,-0.0903,-1.015,-0.0171
2026-07-08 09:37:20.058505+00:00,-0.225,-0.9628,-0.0185
2026-07-08 09:37:20.058887+00:00,-0.0327,-0.9677,-0.0063
2026-07-08 09:37:20.059165+00:00,-0.0605,-1.0111,0.0381
2026-07-08 09:37:20.112182+00:00,-0.0942,-0.8764,-0.0107
2026-07-08 09:37:20.112468+00:00,-0.0346,-1.0853,0.0512
2026-07-08 09:37:20.112732+00:00,-0.0761,-0.9658,-0.0068
2026-07-08 09:37:20.112949+00:00,-0.0947,-1.0155,-0.0112
2026-07-08 09:37:20.113197+00:00,-0.0952,-0.8852,-0.0312
2026-07-08 09:37:20.113589+00:00,-0.1264,-0.9667,-0.0083
2026-07-08 09:37:20.161438+00:00,-0.0293,-1.0307,0.0434
2026-07-08 09:37:20.161841+00:00,-0.1113,-1.0048,0.002
2026-07-08 09:37:20.162166+00:00,-0.0673,-1.1551,0.062
2026-07-08 09:37:20.162401+00:00,-0.0888,-0.9579,-0.0215
2026-07-08 09:37:20.213484+00:00,-0.08,-1.0067,0.002
2026-07-08 09:37:20.214043+00:00,-0.0849,-0.873,-0.0337
2026-07-08 09:37:20.214327+00:00,-0.1606,-1.0243,-0.0083
2026-07-08 09:37:20.214509+00:00,-0.0327,-1.0551,0.0454
2026-07-08 09:37:20.214752+00:00,-0.225,-0.9989,-0.0176
2026-07-08 09:37:20.215148+00:00,-0.0981,-1.1575,0.0537
2026-07-08 09:37:20.261043+00:00,-0.039,-0.9243,-0.0093
2026-07-08 09:37:20.261331+00:00,-0.1703,-1.1009,0.0351
2026-07-08 09:37:20.261766+00:00,-0.0478,-0.8755,-0.0195
2026-07-08 09:37:20.262004+00:00,-0.184,-1.0238,-0.0166
2026-07-08 09:37:20.262299+00:00,-0.0825,-0.9658,-0.0088
2026-07-08 09:37:20.311776+00:00,-0.0605,-0.9892,-0.0444
2026-07-08 09:37:20.312356+00:00,-0.0991,-1.1561,0.0537
2026-07-08 09:37:20.312546+00:00,0.0098,-0.9165,-0.0117
2026-07-08 09:37:20.312658+00:00,-0.1479,-1.0843,0.039
2026-07-08 09:37:20.375732+00:00,-0.0634,-0.9487,-0.0127
2026-07-08 09:37:20.376175+00:00,-0.0898,-1.0243,-0.0151
2026-07-08 09:37:20.376475+00:00,-0.1283,-0.9755,-0.0044
2026-07-08 09:37:20.376632+00:00,-0.0356,-0.9755,-0.0029
2026-07-08 09:37:20.376921+00:00,-0.0673,-1.0146,0.0503
2026-07-08 09:37:20.377367+00:00,-0.0927,-0.9228,-0.0122
2026-07-08 09:37:20.377685+00:00,-0.1498,-1.077,0.0454
2026-07-08 09:37:20.437932+00:00,-0.0737,-0.955,-0.0117
2026-07-08 09:37:20.438600+00:00,-0.1035,-1.0248,-0.0142
2026-07-08 09:37:20.438978+00:00,-0.102,-0.8867,-0.0161
2026-07-08 09:37:20.439283+00:00,-0.1078,-0.9697,-0.0088
2026-07-08 09:37:20.439617+00:00,-0.0468,-1.0209,0.0439
2026-07-08 09:37:20.440141+00:00,-0.1049,-1.0009,0.0024
2026-07-08 09:37:20.485906+00:00,-0.0386,-1.1361,0.0508
2026-07-08 09:37:20.486309+00:00,-0.1122,-0.957,-0.0098
2026-07-08 09:37:20.486624+00:00,-0.0947,-1.0067,-0.0117
2026-07-08 09:37:20.486880+00:00,-0.0981,-0.8711,-0.0405
2026-07-08 09:37:20.487043+00:00,-0.1322,-1.0219,-0.0073
2026-07-08 09:37:20.541315+00:00,-0.0102,-1.038,0.0488
2026-07-08 09:37:20.541894+00:00,-0.1132,-1.0033,-0.0005
2026-07-08 09:37:20.542179+00:00,-0.0649,-1.1541,0.0488
2026-07-08 09:37:20.542386+00:00,-0.0869,-0.9292,-0.0249
2026-07-08 09:37:20.542550+00:00,-0.1708,-1.0043,0.0044
2026-07-08 09:37:20.596187+00:00,-0.0112,-0.8721,-0.0346
2026-07-08 09:37:20.596717+00:00,-0.1508,-1.0238,0.002
2026-07-08 09:37:20.597096+00:00,-0.0264,-0.9418,0.0459
2026-07-08 09:37:20.597490+00:00,-0.1137,-0.9989,-0.0117
2026-07-08 09:37:20.597711+00:00,-0.1601,-1.157,0.0537
2026-07-08 09:37:20.597951+00:00,-0.0595,-0.9233,-0.0078
2026-07-08 09:37:20.645158+00:00,-0.1664,-1.1175,0.062
2026-07-08 09:37:20.645742+00:00,-0.0249,-0.9282,-0.0312
2026-07-08 09:37:20.646060+00:00,-0.0771,-1.0204,-0.0078
2026-07-08 09:37:20.646491+00:00,-0.0415,-0.9575,-0.0146
2026-07-08 09:37:20.647243+00:00,-0.0961,-1.0014,0.0112
2026-07-08 09:37:20.693095+00:00,-0.1484,-0.9721,0.0508
2026-07-08 09:37:20.693713+00:00,-0.0678,-0.9228,-0.0078
2026-07-08 09:37:20.694126+00:00,-0.1708,-1.0975,0.0517
2026-07-08 09:37:20.694583+00:00,-0.0332,-0.9321,-0.0346
2026-07-08 09:37:20.694970+00:00,-0.081,-1.0799,-0.0142
2026-07-08 09:37:20.769396+00:00,-0.083,-0.9618,-0.0107
2026-07-08 09:37:20.770070+00:00,-0.0693,-0.9965,0.0137
2026-07-08 09:37:20.770622+00:00,-0.1322,-0.9789,-0.0181
2026-07-08 09:37:20.771147+00:00,-0.0732,-0.9838,-0.0098
2026-07-08 09:37:20.771893+00:00,-0.0063,-1.0746,0.0488
2026-07-08 09:37:20.772319+00:00,-0.1474,-0.9311,-0.0356
2026-07-08 09:37:20.772819+00:00,-0.0908,-1.0707,0.041
2026-07-08 09:37:20.821351+00:00,-0.0903,-0.9165,-0.0415
2026-07-08 09:37:20.821866+00:00,-0.063,-1.0146,0.0127
2026-07-08 09:37:20.822262+00:00,-0.0454,-0.9916,-0.0024
2026-07-08 09:37:20.822691+00:00,-0.0703,-0.9882,-0.0068
2026-07-08 09:37:20.822978+00:00,-0.0112,-1.0863,0.0498
2026-07-08 09:37:20.869994+00:00,-0.1532,-0.9765,-0.0322
2026-07-08 09:37:20.870859+00:00,-0.1337,-1.0609,0.0278
2026-07-08 09:37:20.871361+00:00,-0.0976,-0.9072,-0.0444
2026-07-08 09:37:20.872054+00:00,-0.0586,-1.0155,0.0483
2026-07-08 09:37:20.872848+00:00,-0.0376,-0.8891,0.0107
2026-07-08 09:37:20.932368+00:00,-0.1815,-0.9892,-0.0078
2026-07-08 09:37:20.932992+00:00,-0.0073,-1.0931,0.0527
2026-07-08 09:37:20.933257+00:00,-0.1523,-0.9677,-0.0454
2026-07-08 09:37:20.933476+00:00,-0.1464,-1.1448,0.0146
2026-07-08 09:37:20.933724+00:00,0.0093,-0.9223,-0.0444
2026-07-08 09:37:20.933999+00:00,-0.1454,-1.0253,0.0468
2026-07-08 09:37:20.934317+00:00,-0.0264,-0.896,-0.0127
2026-07-08 09:37:20.983342+00:00,-0.1801,-1.0214,-0.022
2026-07-08 09:37:20.983930+00:00,-0.1293,-0.977,0.0537
2026-07-08 09:37:20.984289+00:00,-0.0395,-0.9516,-0.0415
2026-07-08 09:37:20.984728+00:00,-0.1566,-1.1424,0.0532
2026-07-08 09:37:21.043968+00:00,0.0137,-0.9238,-0.0142
2026-07-08 09:37:21.044579+00:00,-0.141,-1.0838,0.0434
2026-07-08 09:37:21.044893+00:00,-0.0732,-0.9067,-0.0112
2026-07-08 09:37:21.045224+00:00,-0.1796,-1.0194,-0.019
2026-07-08 09:37:21.045523+00:00,-0.1386,-0.9794,-0.0054
2026-07-08 09:37:21.045894+00:00,-0.0351,-0.9721,-0.0405
2026-07-08 09:37:21.046197+00:00,-0.0678,-1.1444,0.0498
2026-07-08 09:37:21.090132+00:00,0.02,-0.9218,-0.0146
2026-07-08 09:37:21.090501+00:00,-0.1288,-1.0829,0.0429
2026-07-08 09:37:21.090782+00:00,-0.0722,-0.957,-0.0068
2026-07-08 09:37:21.091085+00:00,-0.1005,-1.0316,-0.0166
2026-07-08 09:37:21.148971+00:00,-0.2269,-0.9833,-0.0088
2026-07-08 09:37:21.149669+00:00,-0.0346,-0.9755,-0.0015
2026-07-08 09:37:21.150111+00:00,-0.0639,-1.015,0.0356
2026-07-08 09:37:21.150651+00:00,-0.0898,-0.9936,-0.0161
2026-07-08 09:37:21.151099+00:00,-0.0229,-1.0795,0.0454
2026-07-08 09:37:21.151831+00:00,-0.0712,-0.9462,-0.0185
2026-07-08 09:37:21.202439+00:00,-0.1039,-1.0277,-0.0093
2026-07-08 09:37:21.202993+00:00,-0.1049,-0.8945,-0.0117
2026-07-08 09:37:21.203753+00:00,-0.0917,-0.978,-0.0015
2026-07-08 09:37:21.203946+00:00,-0.0576,-1.0155,0.0395
2026-07-08 09:37:21.204375+00:00,-0.0903,-0.9975,-0.002
2026-07-08 09:37:21.262208+00:00,-0.0259,-1.1209,0.041
2026-07-08 09:37:21.262748+00:00,-0.1308,-0.954,-0.0127
2026-07-08 09:37:21.263007+00:00,-0.042,-1.0199,-0.0112
2026-07-08 09:37:21.263219+00:00,-0.1044,-0.8911,-0.0405
2026-07-08 09:37:21.263429+00:00,-0.102,-1.0268,-0.002
2026-07-08 09:37:21.263721+00:00,-0.0132,-1.0302,0.0405
2026-07-08 09:37:21.263905+00:00,-0.1679,-1.0102,0.0049
2026-07-08 09:37:21.308050+00:00,-0.0224,-1.1273,0.0512
2026-07-08 09:37:21.308314+00:00,-0.1283,-0.9423,-0.0298
2026-07-08 09:37:21.308669+00:00,-0.1591,-1.1283,-0.0171
2026-07-08 09:37:21.308962+00:00,0.0181,-0.8847,-0.0449
2026-07-08 09:37:21.358422+00:00,-0.1078,-1.0258,0.0283
2026-07-08 09:37:21.359088+00:00,-0.0122,-0.9096,-0.0166
2026-07-08 09:37:21.359278+00:00,-0.162,-1.0165,0.0039
2026-07-08 09:37:21.359390+00:00,-0.1645,-1.1292,0.0498
2026-07-08 09:37:21.359484+00:00,-0.1191,-0.9326,-0.0273
2026-07-08 09:37:21.406449+00:00,-0.1664,-1.1258,0.0508
2026-07-08 09:37:21.407009+00:00,0.0112,-0.9218,-0.0464
2026-07-08 09:37:21.407388+00:00,-0.1049,-1.0321,0.0298
2026-07-08 09:37:21.407753+00:00,-0.0122,-0.9145,-0.0181
2026-07-08 09:37:21.408169+00:00,-0.1562,-1.0155,-0.0059
2026-07-08 09:37:21.468304+00:00,-0.1669,-0.9838,0.0488
2026-07-08 09:37:21.469223+00:00,-0.0381,-0.9809,-0.0244
2026-07-08 09:37:21.469668+00:00,-0.0444,-1.1258,0.0532
2026-07-08 09:37:21.469852+00:00,0.0112,-0.9223,-0.02
2026-07-08 09:37:21.470349+00:00,-0.1015,-1.0697,0.0429
2026-07-08 09:37:21.470602+00:00,-0.0737,-0.9526,-0.022
2026-07-08 09:37:21.531147+00:00,-0.0986,-1.0126,0.0005
2026-07-08 09:37:21.531532+00:00,-0.1713,-0.9809,-0.0239
2026-07-08 09:37:21.531740+00:00,-0.042,-0.9823,-0.0068
2026-07-08 09:37:21.531850+00:00,-0.0303,-1.0385,0.0542
2026-07-08 09:37:21.532064+00:00,-0.1118,-0.9184,-0.0244
2026-07-08 09:37:21.532409+00:00,-0.0874,-1.0736,0.0522
2026-07-08 09:37:21.532557+00:00,-0.0781,-0.9443,-0.0137
2026-07-08 09:37:21.589313+00:00,-0.0903,-1.0014,0.0054
2026-07-08 09:37:21.589611+00:00,-0.1005,-0.9784,-0.0303
2026-07-08 09:37:21.589911+00:00,-0.0512,-0.9862,-0.0034
2026-07-08 09:37:21.590172+00:00,-0.02,-1.0424,0.0493
2026-07-08 09:37:21.590645+00:00,-0.1186,-1.0082,-0.0298
2026-07-08 09:37:21.646735+00:00,-0.0595,-1.0287,0.0566
2026-07-08 09:37:21.647179+00:00,-0.0795,-0.936,-0.0254
2026-07-08 09:37:21.647434+00:00,-0.082,-1.0028,-0.0005
2026-07-08 09:37:21.647560+00:00,-0.0898,-0.8725,-0.0361
2026-07-08 09:37:21.647675+00:00,-0.1586,-1.0346,-0.0015
2026-07-08 09:37:21.647875+00:00,-0.0273,-1.0521,0.0537
2026-07-08 09:37:21.694252+00:00,-0.1288,-0.997,-0.0117
2026-07-08 09:37:21.694764+00:00,-0.0781,-1.1483,0.0503
2026-07-08 09:37:21.694915+00:00,-0.0537,-0.9033,-0.0351
2026-07-08 09:37:21.695287+00:00,-0.1625,-1.0033,0.0161
2026-07-08 09:37:21.695730+00:00,-0.0815,-0.8813,-0.0293
2026-07-08 09:37:21.746684+00:00,-0.1684,-1.0409,-0.0015
2026-07-08 09:37:21.747113+00:00,-0.0429,-0.9682,0.0473
2026-07-08 09:37:21.747507+00:00,-0.0991,-0.995,-0.0181
2026-07-08 09:37:21.748395+00:00,-0.0298,-1.1395,0.0493
2026-07-08 09:37:21.749550+00:00,-0.0439,-0.9033,-0.0137
2026-07-08 09:37:21.809044+00:00,-0.1684,-1.0878,0.0239
2026-07-08 09:37:21.809418+00:00,-0.0264,-0.9057,-0.0249
2026-07-08 09:37:21.809708+00:00,-0.2089,-1.0424,-0.0073
2026-07-08 09:37:21.810004+00:00,-0.0483,-0.9799,-0.0083
2026-07-08 09:37:21.810159+00:00,-0.0883,-1.0199,-0.1059
2026-07-08 09:37:21.810447+00:00,-0.1401,-0.9921,0.0478
2026-07-08 09:37:21.869405+00:00,-0.0712,-0.8969,-0.0181
2026-07-08 09:37:21.869789+00:00,-0.1688,-1.079,0.0434
2026-07-08 09:37:21.870144+00:00,-0.0351,-0.9072,-0.0444
2026-07-08 09:37:21.870634+00:00,-0.081,-1.0673,-0.0122
2026-07-08 09:37:21.870783+00:00,-0.0869,-0.9809,-0.0044
2026-07-08 09:37:21.871185+00:00,-0.0805,-1.0199,0.0224
2026-07-08 09:37:21.916938+00:00,-0.1283,-0.998,-0.0132
2026-07-08 09:37:21.917520+00:00,-0.0791,-0.9936,-0.0176
2026-07-08 09:37:21.917890+00:00,-0.0029,-1.0677,0.0381
2026-07-08 09:37:21.918105+00:00,-0.0449,-0.9101,-0.0429
2026-07-08 09:37:21.918534+00:00,-0.0878,-1.0536,0.039
2026-07-08 09:37:21.965441+00:00,-0.0917,-0.9204,0.0029
2026-07-08 09:37:21.965704+00:00,-0.0688,-1.0185,0.0224
2026-07-08 09:37:21.965820+00:00,-0.0537,-1.0043,-0.0024
2026-07-08 09:37:21.966145+00:00,-0.0742,-0.9931,-0.0068
2026-07-08 09:37:21.966396+00:00,-0.001,-1.0746,0.0512
2026-07-08 09:37:22.012883+00:00,-0.1459,-0.9643,-0.039
2026-07-08 09:37:22.013134+00:00,-0.124,-1.0477,0.0283
2026-07-08 09:37:22.013260+00:00,-0.0966,-0.916,-0.0415
2026-07-08 09:37:22.013855+00:00,-0.0683,-1.017,0.0429
2026-07-08 09:37:22.014562+00:00,-0.0459,-0.8994,0.0005
2026-07-08 09:37:22.060428+00:00,-0.1854,-0.9945,-0.0044
2026-07-08 09:37:22.061029+00:00,-0.0044,-1.0829,0.0508
2026-07-08 09:37:22.061215+00:00,-0.144,-0.9653,-0.0439
2026-07-08 09:37:22.061302+00:00,-0.1303,-1.1409,0.0254
2026-07-08 09:37:22.113200+00:00,-0.0088,-0.9179,-0.0415
2026-07-08 09:37:22.113891+00:00,-0.0669,-1.0136,0.0439
2026-07-08 09:37:22.114392+00:00,-0.0468,-0.8974,-0.0151
2026-07-08 09:37:22.114775+00:00,-0.1859,-1.0404,-0.0044
2026-07-08 09:37:22.115128+00:00,-0.081,-0.9941,0.0522
2026-07-08 09:37:22.115588+00:00,-0.1937,-0.9687,-0.0425
2026-07-08 09:37:22.162382+00:00,-0.1259,-1.1395,0.0468
2026-07-08 09:37:22.162945+00:00,-0.001,-0.8969,-0.0171
2026-07-08 09:37:22.163429+00:00,-0.1498,-1.0638,0.0449
2026-07-08 09:37:22.163768+00:00,-0.0625,-0.8989,-0.0102
2026-07-08 09:37:22.164054+00:00,-0.1854,-1.036,-0.0166
2026-07-08 09:37:22.212129+00:00,-0.0956,-0.9965,0.0029
2026-07-08 09:37:22.212515+00:00,-0.0625,-1.0131,-0.0449
2026-07-08 09:37:22.212763+00:00,-0.1059,-1.1375,0.0439
2026-07-08 09:37:22.213034+00:00,0.0063,-0.8984,-0.0161
2026-07-08 09:37:22.213232+00:00,-0.1498,-1.0712,0.0376
2026-07-08 09:37:22.264110+00:00,-0.061,-0.9272,-0.0078
2026-07-08 09:37:22.264435+00:00,-0.0927,-1.036,-0.0171
2026-07-08 09:37:22.264555+00:00,-0.0981,-0.9936,0.0034
2026-07-08 09:37:22.264648+00:00,-0.0615,-1.0063,0.019
2026-07-08 09:37:22.265054+00:00,-0.1035,-1.0102,0.0468
2026-07-08 09:37:22.331863+00:00,-0.0776,-0.9984,-0.0161
2026-07-08 09:37:22.332510+00:00,-0.1352,-1.0638,0.0366
2026-07-08 09:37:22.333188+00:00,-0.063,-0.9209,-0.0366
2026-07-08 09:37:22.333566+00:00,-0.0947,-1.0448,-0.1083
2026-07-08 09:37:22.333889+00:00,-0.0991,-0.915,0.0044
2026-07-08 09:37:22.334079+00:00,-0.0669,-1.0053,0.0181
2026-07-08 09:37:22.391063+00:00,-0.0947,-1.0097,0.0161
2026-07-08 09:37:22.391700+00:00,-0.0771,-0.9936,-0.0049
2026-07-08 09:37:22.392087+00:00,-0.0034,-1.0834,0.0381
2026-07-08 09:37:22.392377+00:00,-0.1479,-0.9165,-0.041
2026-07-08 09:37:22.392685+00:00,-0.0981,-1.0419,0.0137
2026-07-08 09:37:22.393016+00:00,-0.1015,-0.9091,-0.0454
2026-07-08 09:37:22.457104+00:00,-0.08,-1.0263,0.0151
2026-07-08 09:37:22.457590+00:00,-0.0351,-1.0131,0.0244
2026-07-08 09:37:22.458067+00:00,-0.0854,-0.995,-0.0034
2026-07-08 09:37:22.458258+00:00,-0.0063,-1.0902,0.0537
2026-07-08 09:37:22.458472+00:00,-0.1366,-0.9462,-0.0342
2026-07-08 09:37:22.458774+00:00,-0.1464,-1.1214,0.002
2026-07-08 09:37:22.459374+00:00,-0.1127,-0.9121,-0.0434
2026-07-08 09:37:22.504909+00:00,-0.0839,-1.0346,0.0444
2026-07-08 09:37:22.505495+00:00,-0.0254,-0.9174,0.1181
2026-07-08 09:37:22.505852+00:00,-0.1791,-1.0414,-0.001
2026-07-08 09:37:22.506131+00:00,-0.1322,-1.098,0.0517
2026-07-08 09:37:22.506317+00:00,-0.1381,-0.9365,-0.0439
2026-07-08 09:37:22.555194+00:00,-0.1542,-1.1141,0.039
2026-07-08 09:37:22.555588+00:00,0.0137,-0.8945,-0.0444
2026-07-08 09:37:22.555906+00:00,-0.1322,-1.039,0.0434
2026-07-08 09:37:22.556122+00:00,-0.0142,-0.9316,-0.0029
2026-07-08 09:37:22.556342+00:00,-0.1776,-1.0468,-0.0083
2026-07-08 09:37:22.627150+00:00,-0.1435,-1.0106,0.0473
2026-07-08 09:37:22.627773+00:00,-0.0376,-0.9272,-0.0454
2026-07-08 09:37:22.628118+00:00,-0.1591,-1.1151,0.0405
2026-07-08 09:37:22.628785+00:00,0.0171,-0.8916,-0.0259
2026-07-08 09:37:22.629083+00:00,-0.1274,-1.0526,0.0425
2026-07-08 09:37:22.630081+00:00,-0.0742,-0.9379,-0.0054
2026-07-08 09:37:22.679063+00:00,-0.2264,-1.0438,-0.0068
2026-07-08 09:37:22.679430+00:00,-0.1508,-1.0097,-0.0039
2026-07-08 09:37:22.679773+00:00,-0.0371,-1.0053,-0.123
2026-07-08 09:37:22.680547+00:00,-0.0605,-1.0272,0.0429
2026-07-08 09:37:22.681519+00:00,-0.0913,-0.896,-0.0264
2026-07-08 09:37:22.681930+00:00,-0.1225,-1.0516,0.0381
2026-07-08 09:37:22.742153+00:00,-0.0698,-0.9384,-0.0195
2026-07-08 09:37:22.742638+00:00,-0.1049,-1.0097,-0.0059
2026-07-08 09:37:22.742756+00:00,-0.1098,-1.0082,-0.0083
2026-07-08 09:37:22.743063+00:00,-0.0381,-1.0043,0.0005
2026-07-08 09:37:22.743299+00:00,-0.0551,-1.0287,0.0439
2026-07-08 09:37:22.743590+00:00,-0.0908,-1.0072,-0.0249
2026-07-08 09:37:22.743796+00:00,-0.0185,-1.0546,0.0371
2026-07-08 09:37:22.805126+00:00,-0.0703,-0.934,-0.019
2026-07-08 09:37:22.805713+00:00,-0.102,-1.015,-0.0146
2026-07-08 09:37:22.806117+00:00,-0.1059,-0.8916,-0.0112
2026-07-08 09:37:22.806424+00:00,-0.1093,-0.9106,0.0015
2026-07-08 09:37:22.807109+00:00,-0.0073,-1.0272,0.0439
2026-07-08 09:37:22.807415+00:00,-0.0937,-1.0024,0.0049
2026-07-08 09:37:22.853077+00:00,-0.0264,-1.1239,0.0464
2026-07-08 09:37:22.853700+00:00,-0.1249,-0.9243,-0.0142
2026-07-08 09:37:22.853939+00:00,-0.1645,-1.0136,-0.0166
2026-07-08 09:37:22.854055+00:00,-0.1059,-0.894,-0.0434
2026-07-08 09:37:22.854486+00:00,-0.1083,-1.0326,0.0317
2026-07-08 09:37:22.920079+00:00,-0.0093,-0.9243,0.0434
2026-07-08 09:37:22.920635+00:00,-0.162,-1.0033,0.0034
2026-07-08 09:37:22.921002+00:00,-0.0303,-1.1258,0.0454
2026-07-08 09:37:22.921355+00:00,-0.1205,-0.9262,-0.0293
2026-07-08 09:37:22.921633+00:00,-0.1649,-1.1165,-0.0146
2026-07-08 09:37:22.921963+00:00,0.0151,-0.8901,-0.0425
2026-07-08 09:37:22.980814+00:00,-0.1142,-1.0331,0.0298
2026-07-08 09:37:22.981295+00:00,-0.0102,-0.9145,-0.02
2026-07-08 09:37:22.981640+00:00,-0.1571,-1.018,0.0029
2026-07-08 09:37:22.982017+00:00,-0.1654,-1.2259,0.0483
2026-07-08 09:37:22.982178+00:00,-0.04,-0.9326,-0.0234
2026-07-08 09:37:22.982408+00:00,-0.1674,-1.1292,0.0547
2026-07-08 09:37:23.044298+00:00,0.0176,-0.9248,-0.0185
2026-07-08 09:37:23.044939+00:00,-0.0976,-1.0692,0.0254
2026-07-08 09:37:23.045200+00:00,-0.0752,-0.916,-0.0224
2026-07-08 09:37:23.045352+00:00,-0.1576,-1.0189,-0.0044
2026-07-08 09:37:23.045584+00:00,-0.1693,-0.9862,-0.0205
2026-07-08 09:37:23.045840+00:00,-0.0386,-0.9877,-0.0254
2026-07-08 09:37:23.046196+00:00,-0.0405,-1.1219,0.0512
2026-07-08 09:37:23.091799+00:00,0.0146,-0.914,-0.0239
2026-07-08 09:37:23.092055+00:00,-0.0947,-1.0663,0.0444
2026-07-08 09:37:23.092175+00:00,-0.0752,-0.9438,-0.019
2026-07-08 09:37:23.092251+00:00,-0.0986,-1.0263,0.0049
2026-07-08 09:37:23.092415+00:00,-0.1664,-0.9814,-0.021
2026-07-08 09:37:23.149101+00:00,-0.041,-0.9911,-0.002
2026-07-08 09:37:23.149635+00:00,-0.0356,-1.038,0.0498
2026-07-08 09:37:23.149925+00:00,-0.1049,-0.915,-0.0298
2026-07-08 09:37:23.150321+00:00,-0.0415,-1.0648,0.0449
2026-07-08 09:37:23.150518+00:00,-0.0795,-0.9453,-0.0146
2026-07-08 09:37:23.200540+00:00,-0.0971,-1.0024,0.1083
2026-07-08 09:37:23.202323+00:00,-0.1059,-0.8794,-0.0205
2026-07-08 09:37:23.214590+00:00,-0.1259,-0.9862,-0.0029
2026-07-08 09:37:23.225388+00:00,-0.0337,-1.0394,0.0468
2026-07-08 09:37:23.229848+00:00,-0.1074,-1.0067,0.0054
2026-07-08 09:37:23.274458+00:00,-0.0405,-1.139,0.0449
2026-07-08 09:37:23.275597+00:00,-0.1054,-0.9472,-0.0137
2026-07-08 09:37:23.277177+00:00,-0.0961,-1.0067,-0.0146
2026-07-08 09:37:23.278832+00:00,-0.102,-0.8808,-0.0425
2026-07-08 09:37:23.279258+00:00,-0.1313,-1.0438,-0.0029
2026-07-08 09:37:23.279553+00:00,-0.0122,-1.0321,0.0454
2026-07-08 09:37:23.279884+00:00,-0.1118,-1.0043,0.0044
2026-07-08 09:37:23.329073+00:00,-0.0464,-1.1331,0.0444
2026-07-08 09:37:23.329483+00:00,-0.1,-0.915,-0.0176
2026-07-08 09:37:23.329711+00:00,-0.1728,-1.1126,-0.0098
2026-07-08 09:37:23.330010+00:00,-0.1176,-0.8799,-0.0395
2026-07-08 09:37:23.330252+00:00,-0.1347,-1.0385,0.0205
2026-07-08 09:37:23.330458+00:00,-0.0127,-0.9496,0.1122
2026-07-08 09:37:23.396180+00:00,-0.1391,-1.018,0.0034
2026-07-08 09:37:23.396965+00:00,-0.1786,-1.1331,0.0464
2026-07-08 09:37:23.397280+00:00,-0.0961,-0.9155,-0.021
2026-07-08 09:37:23.397516+00:00,-0.1737,-1.1097,0.0527
2026-07-08 09:37:23.397696+00:00,0.0024,-0.914,-0.039
2026-07-08 09:37:23.397872+00:00,-0.083,-1.0429,0.019
2026-07-08 09:37:23.398050+00:00,-0.0102,-0.9433,-0.0137
2026-07-08 09:37:23.451149+00:00,-0.1322,-1.0263,0.0122
2026-07-08 09:37:23.466462+00:00,-0.1737,-0.9809,0.0468
2026-07-08 09:37:23.466645+00:00,-0.0483,-0.9116,-0.021
2026-07-08 09:37:23.466873+00:00,-0.1708,-1.1092,0.0547
2026-07-08 09:37:23.467312+00:00,0.0034,-0.9135,-0.0283
2026-07-08 09:37:23.467939+00:00,-0.0786,-1.0731,0.0166
2026-07-08 09:37:23.515261+00:00,-0.0805,-0.9496,-0.0137
2026-07-08 09:37:23.515783+00:00,-0.2196,-1.0268,0.0102
2026-07-08 09:37:23.516193+00:00,-0.181,-0.9872,-0.0259
2026-07-08 09:37:23.516524+00:00,-0.0425,-0.9887,-0.0049
2026-07-08 09:37:23.516840+00:00,-0.0224,-1.0375,0.0478
2026-07-08 09:37:23.517051+00:00,-0.1118,-0.9096,-0.0303
2026-07-08 09:37:23.567922+00:00,-0.0839,-1.076,0.0547
2026-07-08 09:37:23.568398+00:00,-0.0805,-0.9443,-0.0181
2026-07-08 09:37:23.568628+00:00,-0.0981,-1.0131,0.0073
2026-07-08 09:37:23.568759+00:00,-0.102,-0.9916,-0.0249
2026-07-08 09:37:23.568841+00:00,-0.0429,-0.9804,-0.0059
2026-07-08 09:37:23.630413+00:00,-0.0273,-1.035,0.0434
2026-07-08 09:37:23.630823+00:00,-0.1078,-0.9999,-0.0273
2026-07-08 09:37:23.631222+00:00,-0.039,-1.0712,0.0468
2026-07-08 09:37:23.631482+00:00,-0.0791,-0.9526,-0.0107
2026-07-08 09:37:23.631720+00:00,-0.103,-1.0131,-0.0117
2026-07-08 09:37:23.631977+00:00,-0.1035,-0.8921,-0.0215
2026-07-08 09:37:23.694515+00:00,-0.1166,-0.9784,-0.0063
2026-07-08 09:37:23.694863+00:00,-0.0098,-1.0209,0.0425
2026-07-08 09:37:23.695072+00:00,-0.1015,-0.9945,0.0
2026-07-08 09:37:23.695248+00:00,-0.0327,-1.117,0.0434
2026-07-08 09:37:23.695378+00:00,-0.1288,-0.935,-0.0093
2026-07-08 09:37:23.695527+00:00,-0.162,-1.0297,-0.0102
2026-07-08 09:37:23.695615+00:00,-0.1059,-0.893,-0.041
2026-07-08 09:37:23.743646+00:00,-0.0961,-1.0365,0.0415
2026-07-08 09:37:23.744265+00:00,-0.0151,-0.914,0.0361
2026-07-08 09:37:23.744482+00:00,-0.1713,-0.9887,-0.0049
2026-07-08 09:37:23.744645+00:00,-0.0224,-1.1078,0.0488
2026-07-08 09:37:23.744827+00:00,-0.1347,-0.936,-0.0415
2026-07-08 09:37:23.791885+00:00,-0.1537,-1.1307,0.001
2026-07-08 09:37:23.792413+00:00,0.0137,-0.913,-0.04
2026-07-08 09:37:23.792802+00:00,-0.0791,-1.0268,0.042
2026-07-08 09:37:23.793123+00:00,-0.0298,-0.896,-0.0142
2026-07-08 09:37:23.855276+00:00,-0.184,-1.0243,-0.0039
2026-07-08 09:37:23.855697+00:00,-0.1005,-1.0868,0.0503
2026-07-08 09:37:23.856240+00:00,-0.183,-0.9672,-0.0454
2026-07-08 09:37:23.856503+00:00,-0.1279,-1.1483,0.0508
2026-07-08 09:37:23.856804+00:00,-0.0098,-0.917,-0.0142
2026-07-08 09:37:23.857022+00:00,-0.1562,-1.0907,0.041
2026-07-08 09:37:23.857163+00:00,-0.0493,-0.8847,-0.022
2026-07-08 09:37:23.902745+00:00,-0.1747,-1.0282,-0.0146
2026-07-08 09:37:23.903228+00:00,-0.0449,-0.9506,-0.0142
2026-07-08 09:37:23.903504+00:00,-0.0927,-1.0038,-0.0254
2026-07-08 09:37:23.903804+00:00,-0.1523,-1.1497,0.0522
2026-07-08 09:37:23.904022+00:00,-0.06,-0.9194,-0.0132
2026-07-08 09:37:23.987435+00:00,-0.1586,-1.117,0.0576
2026-07-08 09:37:23.987918+00:00,-0.0093,-0.9321,-0.0381
2026-07-08 09:37:23.988177+00:00,-0.082,-1.0321,0.0117
2026-07-08 09:37:23.988384+00:00,-0.0132,-0.9282,-0.02
2026-07-08 09:37:23.988623+00:00,-0.1405,-1.0121,0.0029
2026-07-08 09:37:23.988936+00:00,-0.1654,-0.9745,0.0464
2026-07-08 09:37:23.989121+00:00,-0.0386,-0.9726,-0.0229
2026-07-08 09:37:24.047193+00:00,-0.1771,-1.1287,0.0517
2026-07-08 09:37:24.047579+00:00,0.0195,-0.9306,-0.0166
2026-07-08 09:37:24.047997+00:00,-0.1186,-1.0785,0.0473
2026-07-08 09:37:24.048318+00:00,-0.0698,-0.9555,-0.0137
2026-07-08 09:37:24.048667+00:00,-0.1025,-1.0185,-0.0151
2026-07-08 09:37:24.049268+00:00,-0.1332,-0.974,-0.0078
2026-07-08 09:37:24.049681+00:00,-0.0361,-0.9833,0.002
2026-07-08 09:37:24.096414+00:00,-0.0854,-0.9994,0.0483
2026-07-08 09:37:24.096820+00:00,-0.0878,-0.9209,-0.0127
2026-07-08 09:37:24.097006+00:00,-0.1444,-1.0838,0.042
2026-07-08 09:37:24.097148+00:00,-0.0581,-0.9448,-0.0283
2026-07-08 09:37:24.097404+00:00,-0.0971,-1.0521,-0.0205
2026-07-08 09:37:24.147596+00:00,-0.0961,-0.9682,-0.0054
2026-07-08 09:37:24.147966+00:00,-0.0712,-0.9941,0.0117
2026-07-08 09:37:24.148320+00:00,-0.1254,-0.9833,-0.0146
2026-07-08 09:37:24.148636+00:00,-0.0776,-0.9789,-0.0112
2026-07-08 09:37:24.149015+00:00,-0.0102,-1.0682,0.0527
2026-07-08 09:37:24.194915+00:00,-0.0337,-0.9306,-0.0337
2026-07-08 09:37:24.195700+00:00,-0.0786,-1.0819,0.0581
2026-07-08 09:37:24.196274+00:00,-0.081,-0.9389,-0.0303
2026-07-08 09:37:24.196557+00:00,-0.0771,-0.9999,0.0102
2026-07-08 09:37:24.196825+00:00,-0.0903,-0.9692,-0.0327
2026-07-08 09:37:24.242706+00:00,-0.0483,-0.9809,-0.0088
2026-07-08 09:37:24.243118+00:00,-0.0239,-1.0433,0.0449
2026-07-08 09:37:24.243315+00:00,-0.1157,-1.016,-0.0239
2026-07-08 09:37:24.243529+00:00,-0.0503,-1.0829,0.0532
2026-07-08 09:37:24.243820+00:00,-0.0742,-0.9457,-0.0122
2026-07-08 09:37:24.305853+00:00,-0.0976,-1.0033,-0.0151
2026-07-08 09:37:24.306231+00:00,-0.1064,-0.8686,-0.0205
2026-07-08 09:37:24.306465+00:00,-0.1083,-0.9828,-0.0039
2026-07-08 09:37:24.306623+00:00,-0.0571,-1.0316,0.0464
2026-07-08 09:37:24.306735+00:00,-0.101,-1.0126,0.002
2026-07-08 09:37:24.361324+00:00,-0.0254,-1.1375,0.0454
2026-07-08 09:37:24.362064+00:00,-0.1396,-0.9365,-0.021
2026-07-08 09:37:24.362501+00:00,-0.0303,-1.0219,-0.0093
2026-07-08 09:37:24.362827+00:00,-0.101,-0.8847,-0.0498
2026-07-08 09:37:24.363197+00:00,-0.0815,-1.0141,0.0068
2026-07-08 09:37:24.363645+00:00,-0.0288,-1.0146,0.0327
2026-07-08 09:37:24.423938+00:00,-0.1796,-1.0092,0.001
2026-07-08 09:37:24.424558+00:00,-0.0093,-1.1151,0.0551
2026-07-08 09:37:24.424769+00:00,-0.1488,-0.9828,-0.0386
2026-07-08 09:37:24.424922+00:00,-0.1327,-1.1536,0.0185
2026-07-08 09:37:24.425182+00:00,-0.0024,-0.8955,-0.0459
2026-07-08 09:37:24.425348+00:00,-0.0634,-0.9975,0.039
2026-07-08 09:37:24.425513+00:00,-0.0522,-0.8691,-0.0234
2026-07-08 09:37:24.471350+00:00,-0.1806,-1.0199,-0.0039
2026-07-08 09:37:24.471668+00:00,-0.0634,-1.0868,0.0532
2026-07-08 09:37:24.471854+00:00,-0.1405,-0.9926,-0.0293
2026-07-08 09:37:24.472005+00:00,-0.1069,-1.1566,0.0503
2026-07-08 09:37:24.472315+00:00,-0.0342,-0.9179,-0.0395
2026-07-08 09:37:24.535476+00:00,-0.1713,-0.9701,0.0244
2026-07-08 09:37:24.535841+00:00,-0.0805,-0.8686,-0.0298
2026-07-08 09:37:24.536063+00:00,-0.1664,-1.0258,-0.0083
2026-07-08 09:37:24.536315+00:00,-0.0327,-0.957,0.0527
2026-07-08 09:37:24.536567+00:00,-0.1108,-1.0121,-0.0127
2026-07-08 09:37:24.536785+00:00,-0.1615,-1.1595,0.0522
2026-07-08 09:37:24.596860+00:00,-0.0659,-0.9194,-0.0122
2026-07-08 09:37:24.597769+00:00,-0.1664,-1.1102,0.0551
2026-07-08 09:37:24.598279+00:00,-0.0088,-0.9204,-0.0429
2026-07-08 09:37:24.598559+00:00,-0.0747,-1.0272,0.0063
2026-07-08 09:37:24.598858+00:00,-0.0161,-0.9301,-0.0215
2026-07-08 09:37:24.599131+00:00,-0.1376,-1.0131,0.0049
2026-07-08 09:37:24.657110+00:00,-0.1776,-0.9853,0.0508
2026-07-08 09:37:24.657454+00:00,-0.0454,-0.9287,-0.0161
2026-07-08 09:37:24.657746+00:00,-0.1693,-1.1239,0.0527
2026-07-08 09:37:24.658097+00:00,0.0083,-0.9204,-0.0259
2026-07-08 09:37:24.658387+00:00,-0.0888,-1.0668,0.0224
2026-07-08 09:37:24.658630+00:00,-0.0727,-0.9209,-0.0205
2026-07-08 09:37:24.720177+00:00,-0.222,-1.0155,0.0
2026-07-08 09:37:24.720603+00:00,-0.1708,-0.9867,-0.02
2026-07-08 09:37:24.721082+00:00,-0.0386,-0.9897,-0.0244
2026-07-08 09:37:24.721386+00:00,-0.0527,-1.0375,0.0542
2026-07-08 09:37:24.721637+00:00,-0.1039,-0.9209,-0.0181
2026-07-08 09:37:24.721896+00:00,-0.1083,-1.0638,0.0425
2026-07-08 09:37:24.774676+00:00,-0.0693,-0.937,-0.0195
2026-07-08 09:37:24.775082+00:00,-0.102,-1.0028,-0.0093
2026-07-08 09:37:24.775880+00:00,-0.1049,-0.9994,-0.0127
2026-07-08 09:37:24.776419+00:00,-0.0351,-1.0004,0.0054
2026-07-08 09:37:24.777347+00:00,-0.0673,-1.0365,0.0439
2026-07-08 09:37:24.827575+00:00,-0.0947,-1.0185,-0.019
2026-07-08 09:37:24.828149+00:00,-0.0181,-1.0594,0.0366
2026-07-08 09:37:24.828417+00:00,-0.0678,-0.9345,-0.0234
2026-07-08 09:37:24.828691+00:00,-0.0966,-1.0106,-0.0122
2026-07-08 09:37:24.828898+00:00,-0.1069,-0.8877,-0.0063
2026-07-08 09:37:24.829115+00:00,-0.0917,-0.998,0.0073
2026-07-08 09:37:24.890522+00:00,-0.0795,-1.0272,0.0386
2026-07-08 09:37:24.891037+00:00,-0.0976,-1.0106,0.002
2026-07-08 09:37:24.891402+00:00,-0.0181,-1.1204,0.0361
2026-07-08 09:37:24.891608+00:00,-0.1303,-0.9536,-0.0259
2026-07-08 09:37:24.891806+00:00,-0.1503,-1.0272,-0.0024
2026-07-08 09:37:24.892072+00:00,-0.1025,-0.8945,-0.0464
2026-07-08 09:37:24.953455+00:00,-0.0849,-1.0175,0.0381
2026-07-08 09:37:24.954180+00:00,-0.0244,-0.8984,0.0293
2026-07-08 09:37:24.955022+00:00,-0.1796,-1.0033,-0.001
2026-07-08 09:37:24.955886+00:00,-0.0146,-1.1112,0.0542
2026-07-08 09:37:24.956896+00:00,-0.1347,-0.9575,-0.0371
2026-07-08 09:37:24.957572+00:00,-0.1469,-1.1414,-0.0015
2026-07-08 09:37:24.958195+00:00,0.0137,-0.9028,-0.0405
2026-07-08 09:37:25.015020+00:00,-0.0864,-1.017,0.0381
2026-07-08 09:37:25.015643+00:00,-0.0259,-0.8955,-0.0122
2026-07-08 09:37:25.016105+00:00,-0.183,0.0,-0.0044
2026-07-08 09:37:25.016551+00:00,-0.1244,-1.1122,0.0542
2026-07-08 09:37:25.016847+00:00,-0.1581,-0.9511,-0.0395
2026-07-08 09:37:25.017262+00:00,-0.1376,-1.139,0.0459
2026-07-08 09:37:25.078695+00:00,0.0137,-0.9174,-0.0415
2026-07-08 09:37:25.079245+00:00,-0.1449,-1.0756,0.039
2026-07-08 09:37:25.079596+00:00,-0.0664,-0.8979,-0.0083
2026-07-08 09:37:25.079970+00:00,-0.1815,-1.0224,-0.0161
2026-07-08 09:37:25.080360+00:00,-0.1205,-0.9848,0.12
2026-07-08 09:37:25.080923+00:00,-0.0376,-1.0004,-0.0395
2026-07-08 09:37:25.131279+00:00,-0.0825,-1.1429,0.0468
2026-07-08 09:37:25.131738+00:00,0.0127,-0.9228,-0.0171
2026-07-08 09:37:25.132049+00:00,-0.1352,-1.0692,0.039
2026-07-08 09:37:25.132305+00:00,-0.0708,-0.9482,-0.0093
2026-07-08 09:37:25.132658+00:00,-0.0898,-1.0214,-0.0127
2026-07-08 09:37:25.179558+00:00,-0.1342,-0.9814,-0.0088
2026-07-08 09:37:25.179963+00:00,-0.0346,-0.996,0.0078
2026-07-08 09:37:25.180125+00:00,-0.0708,-1.0189,0.0488
2026-07-08 09:37:25.180578+00:00,-0.0927,-0.9233,-0.0176
2026-07-08 09:37:25.180795+00:00,-0.1488,-1.0692,0.0425
2026-07-08 09:37:25.229631+00:00,-0.0742,-0.9545,-0.0151
2026-07-08 09:37:25.230379+00:00,-0.0937,-1.0175,-0.0127
2026-07-08 09:37:25.230621+00:00,-0.1069,-0.8969,-0.0161
2026-07-08 09:37:25.230819+00:00,-0.1064,-0.9872,0.0015
2026-07-08 09:37:25.231032+00:00,-0.0615,-1.0214,0.0429
2026-07-08 09:37:25.277468+00:00,-0.0996,-1.0072,0.002
2026-07-08 09:37:25.277941+00:00,-0.0264,-1.1273,0.0439
2026-07-08 09:37:25.278261+00:00,-0.1191,-0.9584,-0.0146
2026-07-08 09:37:25.278547+00:00,-0.0898,-1.0092,-0.0176
2026-07-08 09:37:25.278767+00:00,-0.1054,-0.8882,-0.0439
2026-07-08 09:37:25.326178+00:00,-0.1176,-1.0277,-0.002
2026-07-08 09:37:25.326494+00:00,-0.0078,-1.0209,0.0415
2026-07-08 09:37:25.326707+00:00,-0.1132,-1.0087,0.0015
2026-07-08 09:37:25.326965+00:00,-0.0415,-1.1424,0.0522
2026-07-08 09:37:25.327181+00:00,-0.1039,-0.9243,-0.0112
2026-07-08 09:37:25.388797+00:00,-0.1742,-1.0009,-0.0156
2026-07-08 09:37:25.389360+00:00,-0.1166,-0.8789,-0.0444
2026-07-08 09:37:25.389670+00:00,-0.1376,-1.0311,0.0161
2026-07-08 09:37:25.389964+00:00,-0.0102,-0.9301,0.0429
2026-07-08 09:37:25.390188+00:00,-0.1362,-1.1219,0.0015
2026-07-08 09:37:25.390447+00:00,-0.1757,-1.1502,0.0522
2026-07-08 09:37:25.438195+00:00,-0.0825,-0.9326,-0.0107
2026-07-08 09:37:25.438770+00:00,-0.1674,-1.1273,0.0595
2026-07-08 09:37:25.439116+00:00,-0.019,-0.9394,-0.0395
2026-07-08 09:37:25.439531+00:00,-0.0756,-1.0214,-0.0024
2026-07-08 09:37:25.440056+00:00,-0.0249,-0.9321,-0.0224
2026-07-08 09:37:25.502744+00:00,-0.1064,-0.9926,0.0093
2026-07-08 09:37:25.503210+00:00,-0.1542,-0.9604,0.0581
2026-07-08 09:37:25.503531+00:00,-0.0669,-0.9272,-0.0068
2026-07-08 09:37:25.503711+00:00,-0.1747,-1.1146,0.0576
2026-07-08 09:37:25.504028+00:00,-0.0366,-0.9472,-0.0293
2026-07-08 09:37:25.504275+00:00,-0.0776,-1.0707,-0.0176
2026-07-08 09:37:25.504585+00:00,-0.08,-0.9472,-0.0146
2026-07-08 09:37:25.566147+00:00,-0.0703,-0.9911,0.0112
2026-07-08 09:37:25.566960+00:00,-0.1186,-0.9819,-0.0127
2026-07-08 09:37:25.567684+00:00,-0.0776,-0.9931,-0.0049
2026-07-08 09:37:25.568667+00:00,-0.0171,-1.0985,0.0503
2026-07-08 09:37:25.569703+00:00,-0.0185,-0.9404,-0.0288
2026-07-08 09:37:25.570596+00:00,-0.0888,-1.0404,0.0185
2026-07-08 09:37:25.629450+00:00,-0.0991,-0.9023,-0.0429
2026-07-08 09:37:25.630009+00:00,-0.0795,-1.0067,-0.002
2026-07-08 09:37:25.630431+00:00,-0.0293,-1.0004,0.0249
2026-07-08 09:37:25.630891+00:00,-0.0966,-0.9965,-0.0044
2026-07-08 09:37:25.631279+00:00,-0.0264,-1.1287,0.0566
2026-07-08 09:37:25.631583+00:00,-0.1318,-0.9579,-0.0112
2026-07-08 09:37:25.677706+00:00,-0.1591,-1.0224,-0.0068
2026-07-08 09:37:25.678370+00:00,-0.0996,-0.8799,-0.0439
2026-07-08 09:37:25.678772+00:00,-0.1044,-1.0121,0.0283
2026-07-08 09:37:25.679005+00:00,-0.0093,-0.8901,0.0415
2026-07-08 09:37:25.679310+00:00,-0.1532,-1.0097,0.0034
2026-07-08 09:37:25.740635+00:00,-0.0464,-1.1561,0.0566
2026-07-08 09:37:25.741130+00:00,-0.1093,-0.9404,-0.0127
2026-07-08 09:37:25.741313+00:00,-0.1742,-1.1448,-0.0068
2026-07-08 09:37:25.741422+00:00,-0.001,-0.8213,-0.0444
2026-07-08 09:37:25.741530+00:00,-0.0791,-1.0121,0.0063
2026-07-08 09:37:25.741725+00:00,-0.0166,-0.9184,-0.0264
2026-07-08 09:37:25.789027+00:00,-0.1171,-0.9916,0.0024
2026-07-08 09:37:25.789446+00:00,-0.1615,-0.9599,0.0566
2026-07-08 09:37:25.789808+00:00,-0.0586,-0.9335,-0.0034
2026-07-08 09:37:25.790112+00:00,-0.1728,-1.1219,0.06
2026-07-08 09:37:25.790387+00:00,-0.0346,-0.9389,-0.0303
2026-07-08 09:37:25.851593+00:00,-0.0786,-1.0799,-0.02
2026-07-08 09:37:25.852219+00:00,-0.083,-0.9428,-0.0161
2026-07-08 09:37:25.852693+00:00,-0.0717,-0.9794,0.0078
2026-07-08 09:37:25.852953+00:00,-0.1103,-0.9858,-0.0059
2026-07-08 09:37:25.853280+00:00,-0.0761,-0.9916,-0.0015
2026-07-08 09:37:25.853494+00:00,-0.0195,-1.098,0.0493
2026-07-08 09:37:25.853598+00:00,-0.0615,-0.957,-0.0229
2026-07-08 09:37:25.897932+00:00,-0.0878,-1.035,0.002
2026-07-08 09:37:25.898195+00:00,-0.0971,-0.894,-0.0142
2026-07-08 09:37:25.898935+00:00,-0.0859,-0.8808,-0.0098
2026-07-08 09:37:25.899374+00:00,-0.0093,-1.0141,0.0361
2026-07-08 09:37:25.947216+00:00,-0.0961,-1.0058,0.001
2026-07-08 09:37:25.947713+00:00,-0.0361,-1.1405,0.0561
2026-07-08 09:37:25.947973+00:00,-0.1249,-0.9565,-0.0059
2026-07-08 09:37:25.948154+00:00,-0.1693,-1.0038,-0.0137
2026-07-08 09:37:25.948335+00:00,-0.0952,-0.8647,-0.0483
2026-07-08 09:37:25.994896+00:00,-0.1347,-1.0111,0.0102
2026-07-08 09:37:25.995403+00:00,-0.0088,-0.9126,0.0449
2026-07-08 09:37:25.995739+00:00,-0.1283,-1.0097,-0.0044
2026-07-08 09:37:25.995981+00:00,-0.081,-1.1688,0.0556
2026-07-08 09:37:25.996373+00:00,-0.059,-0.9306,-0.0054
2026-07-08 09:37:26.044340+00:00,-0.1679,-1.1229,0.0215
2026-07-08 09:37:26.044837+00:00,-0.0366,-0.8628,-0.0303
2026-07-08 09:37:26.045282+00:00,-0.1723,-1.0087,-0.019
2026-07-08 09:37:26.045966+00:00,-0.0595,-0.9531,-0.0132
2026-07-08 09:37:26.046657+00:00,-0.0712,-0.9911,-0.0395
2026-07-08 09:37:26.092229+00:00,-0.103,-1.241,0.0561
2026-07-08 09:37:26.093089+00:00,-0.0815,-0.9238,-0.0083
2026-07-08 09:37:26.093292+00:00,-0.1498,-1.0878,0.0454
2026-07-08 09:37:26.093376+00:00,-0.0683,-0.956,-0.02
2026-07-08 09:37:26.093678+00:00,-0.0898,-1.0331,-0.0176
2026-07-08 09:37:26.144809+00:00,-0.0991,-0.9721,-0.0176
2026-07-08 09:37:26.145176+00:00,-0.0381,-0.9799,-0.0044
2026-07-08 09:37:26.145383+00:00,-0.0537,-1.0155,0.0405
2026-07-08 09:37:26.145571+00:00,-0.1049,-1.0033,-0.0146
2026-07-08 09:37:26.145961+00:00,-0.0473,-1.0824,0.0503
2026-07-08 09:37:26.199051+00:00,-0.0795,-0.957,-0.0142
2026-07-08 09:37:26.199454+00:00,-0.0859,-1.0048,-0.0054
2026-07-08 09:37:26.200000+00:00,-0.0913,-0.8716,-0.039
2026-07-08 09:37:26.200273+00:00,-0.1591,-0.9789,-0.0059
2026-07-08 09:37:26.200581+00:00,-0.0176,-1.0546,0.0468
2026-07-08 09:37:26.272152+00:00,-0.1288,-0.995,-0.0205
2026-07-08 09:37:26.272966+00:00,-0.1069,-1.1634,0.0493
2026-07-08 09:37:26.273462+00:00,-0.0322,-0.9243,-0.0405
2026-07-08 09:37:26.273767+00:00,-0.161,-1.0097,0.0405
2026-07-08 09:37:26.274593+00:00,-0.041,-0.8818,-0.0176
2026-07-08 09:37:26.334332+00:00,-0.1859,-1.0175,-0.02
2026-07-08 09:37:26.334916+00:00,-0.1103,-0.9731,0.0522
2026-07-08 09:37:26.335144+00:00,-0.0444,-0.9648,-0.0395
2026-07-08 09:37:26.335447+00:00,-0.1606,-1.1468,0.0512
2026-07-08 09:37:26.335675+00:00,0.0151,-0.9296,-0.0122
2026-07-08 09:37:26.335845+00:00,-0.122,-1.0819,0.0293
2026-07-08 09:37:26.336275+00:00,-0.0712,-0.9018,-0.0195
2026-07-08 09:37:26.336640+00:00,-0.1523,-1.0048,-0.0029
2026-07-08 09:37:26.389304+00:00,-0.1688,-0.9672,-0.0303
2026-07-08 09:37:26.389954+00:00,-0.0473,-0.9731,-0.0142
2026-07-08 09:37:26.390732+00:00,-0.021,-1.1302,0.061
2026-07-08 09:37:26.391239+00:00,-0.0132,-0.9306,-0.0249
2026-07-08 09:37:26.391884+00:00,-0.0771,-1.0843,0.061
2026-07-08 09:37:26.392218+00:00,-0.0834,-0.9438,-0.02
2026-07-08 09:37:26.451677+00:00,-0.0737,-1.0087,0.0098
2026-07-08 09:37:26.452048+00:00,-0.1205,-0.9731,-0.0171
2026-07-08 09:37:26.452591+00:00,-0.08,-0.9892,-0.0078
2026-07-08 09:37:26.453028+00:00,-0.0137,-1.0897,0.0561
2026-07-08 09:37:26.453514+00:00,-0.1405,-0.976,-0.0327
2026-07-08 09:37:26.453991+00:00,-0.1464,-1.0497,0.0127
2026-07-08 09:37:26.454648+00:00,-0.0947,-0.9082,-0.0459
2026-07-08 09:37:26.501408+00:00,-0.0903,-1.0214,0.0366
2026-07-08 09:37:26.502139+00:00,-0.0107,-0.9004,0.0342
2026-07-08 09:37:26.502376+00:00,-0.1693,-1.0019,0.0
2026-07-08 09:37:26.502579+00:00,-0.0312,-1.1322,0.0517
2026-07-08 09:37:26.502888+00:00,-0.1196,-0.9404,-0.0278
