timestamp,ax,ay,az
2026-07-08 09:50:56.208182+00:00,0.1313,-0.2601,-0.4128
2026-07-08 09:50:56.208742+00:00,0.1957,-1.5675,0.3997
2026-07-08 09:50:56.208943+00:00,-0.3216,0.0039,-0.5451
2026-07-08 09:50:56.209138+00:00,0.2708,-1.5089,0.3187
2026-07-08 09:50:56.209375+00:00,-0.2406,-0.8228,-0.1401
2026-07-08 09:50:56.209627+00:00,0.1308,-0.266,-0.1366
2026-07-08 09:50:56.271829+00:00,0.2098,-1.5177,0.3948
2026-07-08 09:50:56.272298+00:00,-0.3577,-0.2713,-0.3865
2026-07-08 09:50:56.272587+00:00,0.2621,-1.5006,0.286
2026-07-08 09:50:56.272877+00:00,-0.4397,-1.1058,0.0176
2026-07-08 09:50:56.273100+00:00,0.081,-0.2762,-0.1488
2026-07-08 09:50:56.273407+00:00,0.2528,-1.7788,0.3894
2026-07-08 09:50:56.335842+00:00,-0.6368,-0.6764,-0.1498
2026-07-08 09:50:56.336408+00:00,0.2494,-1.4186,0.2172
2026-07-08 09:50:56.336805+00:00,-0.4534,-1.0155,0.0786
2026-07-08 09:50:56.337320+00:00,-0.0415,-0.6861,-0.1586
2026-07-08 09:50:56.337470+00:00,-0.0883,-1.7168,0.3758
2026-07-08 09:50:56.337839+00:00,-0.6764,-0.6276,-0.1142
2026-07-08 09:50:56.423357+00:00,0.2611,-1.2049,0.2357
2026-07-08 09:50:56.424018+00:00,-0.3558,-1.0053,0.0156
2026-07-08 09:50:56.424216+00:00,0.0693,-0.6978,-0.164
2026-07-08 09:50:56.424399+00:00,-0.0512,-1.6943,0.388
2026-07-08 09:50:56.424561+00:00,-0.4026,-0.3948,-0.5314
2026-07-08 09:50:56.424695+00:00,0.2855,-1.0902,0.2137
2026-07-08 09:50:56.424872+00:00,-0.3499,-1.0629,0.0415
2026-07-08 09:50:56.425152+00:00,0.1215,-0.6129,-0.2157
2026-07-08 09:50:56.425429+00:00,-0.0532,-1.7207,0.4041
2026-07-08 09:50:56.514331+00:00,-0.4787,-0.3743,-0.5529
2026-07-08 09:50:56.514722+00:00,0.2948,-1.3708,0.2494
2026-07-08 09:50:56.515003+00:00,-0.4465,-1.0526,0.0327
2026-07-08 09:50:56.515358+00:00,0.1391,-0.712,-0.1615
2026-07-08 09:50:56.515620+00:00,-0.0649,-1.73,0.2455
2026-07-08 09:50:56.516316+00:00,-0.65,0.0498,-0.5714
2026-07-08 09:50:56.517008+00:00,0.3558,-1.5065,0.3065
2026-07-08 09:50:56.517533+00:00,-0.5368,-1.0497,-0.0024
2026-07-08 09:50:56.517860+00:00,0.1649,-0.874,0.1728
2026-07-08 09:50:56.590941+00:00,-0.0947,-1.3093,0.1747
2026-07-08 09:50:56.591455+00:00,-0.1161,0.0029,-0.5178
2026-07-08 09:50:56.591636+00:00,0.3465,-1.7319,0.4085
2026-07-08 09:50:56.591789+00:00,-0.5622,-0.9004,-0.4304
2026-07-08 09:50:56.591999+00:00,0.2689,-1.0419,0.2786
2026-07-08 09:50:56.592240+00:00,-0.2103,-0.9994,-0.0268
2026-07-08 09:50:56.592467+00:00,0.1425,-0.428,-0.3841
2026-07-08 09:50:56.592671+00:00,0.1859,-1.8964,0.5109
2026-07-08 09:50:56.682132+00:00,-0.4543,-0.6027,-0.5895
2026-07-08 09:50:56.682762+00:00,0.3357,-1.5665,0.3582
2026-07-08 09:50:56.683020+00:00,-0.4143,-0.7076,-0.0712
2026-07-08 09:50:56.683335+00:00,0.1581,-0.693,-0.1781
2026-07-08 09:50:56.683532+00:00,-0.0473,-1.9339,0.2869
2026-07-08 09:50:56.683890+00:00,-0.7218,-0.1318,-0.49
2026-07-08 09:50:56.684324+00:00,0.3299,-1.5333,0.3479
2026-07-08 09:50:56.684730+00:00,-0.6256,-1.1063,0.0322
2026-07-08 09:50:56.685241+00:00,0.1352,-0.7891,0.1
2026-07-08 09:50:56.732776+00:00,-0.1259,-1.281,0.184
2026-07-08 09:50:56.733445+00:00,-0.2664,-0.2967,-0.4104
2026-07-08 09:50:56.733686+00:00,0.3426,-1.5187,0.3392
2026-07-08 09:50:56.733876+00:00,-0.672,-1.017,-0.2596
2026-07-08 09:50:56.734073+00:00,0.1313,-0.7174,0.1718
2026-07-08 09:50:56.789264+00:00,-0.1493,-1.2351,0.1459
2026-07-08 09:50:56.789738+00:00,-0.2704,-0.3533,-0.3743
2026-07-08 09:50:56.790183+00:00,0.3323,-1.483,0.3201
2026-07-08 09:50:56.790672+00:00,-0.6739,-1.0243,-0.2723
2026-07-08 09:50:56.791120+00:00,0.1371,-1.2747,0.1669
2026-07-08 09:50:56.851341+00:00,-0.3445,-1.2415,0.1527
2026-07-08 09:50:56.851821+00:00,-0.2313,-0.3367,-0.3758
2026-07-08 09:50:56.852246+00:00,0.303,-1.465,0.3719
2026-07-08 09:50:56.852684+00:00,-0.6359,-0.3314,-0.3157
2026-07-08 09:50:56.852841+00:00,0.3138,-1.1058,0.0839
2026-07-08 09:50:56.853482+00:00,-0.326,-1.3278,0.1937
2026-07-08 09:50:56.853887+00:00,-0.0634,-0.2372,-0.3343
2026-07-08 09:50:56.917720+00:00,0.2826,-1.5714,0.3372
2026-07-08 09:50:56.918179+00:00,-0.2303,-0.5231,-0.2157
2026-07-08 09:50:56.918556+00:00,0.3362,-0.8755,-0.0356
2026-07-08 09:50:56.918847+00:00,-0.2982,-1.4533,-0.1113
2026-07-08 09:50:56.919121+00:00,-0.0249,-0.0112,-0.3802
2026-07-08 09:50:56.919467+00:00,0.2743,-1.5762,0.3274
2026-07-08 09:50:56.976701+00:00,-0.3816,-0.7491,-0.0742
2026-07-08 09:50:56.977000+00:00,0.266,-0.8823,-0.0171
2026-07-08 09:50:56.977456+00:00,-0.2723,-1.5157,0.0005
2026-07-08 09:50:56.977743+00:00,-0.1137,-0.2484,-0.4153
2026-07-08 09:50:56.978004+00:00,0.161,-1.6358,0.3675
2026-07-08 09:50:56.978270+00:00,-0.4534,-0.7857,-0.0669
2026-07-08 09:50:57.025165+00:00,0.2723,-1.0082,0.1347
2026-07-08 09:50:57.025607+00:00,-0.2635,-1.0931,0.0532
2026-07-08 09:50:57.025942+00:00,0.0059,-0.2367,-0.4216
2026-07-08 09:50:57.026404+00:00,0.161,-1.6602,0.3899
2026-07-08 09:50:57.026623+00:00,-0.4646,-0.6905,-0.4851
2026-07-08 09:50:57.087101+00:00,0.2747,-1.2273,0.1747
2026-07-08 09:50:57.088039+00:00,-0.303,-1.0126,0.0146
2026-07-08 09:50:57.088596+00:00,0.0634,-0.3601,-0.3518
2026-07-08 09:50:57.089195+00:00,0.0766,-1.7217,0.3001
2026-07-08 09:50:57.089859+00:00,-0.3479,-0.4695,-0.61
2026-07-08 09:50:57.090123+00:00,0.303,-1.2854,0.2152
2026-07-08 09:50:57.136205+00:00,-0.3982,-1.0058,0.0166
2026-07-08 09:50:57.136573+00:00,0.1235,-0.6412,-0.2137
2026-07-08 09:50:57.136958+00:00,-0.0185,-1.7612,0.2664
2026-07-08 09:50:57.137203+00:00,-0.692,0.1161,-0.6032
2026-07-08 09:50:57.137431+00:00,0.3811,-1.5006,0.3157
2026-07-08 09:50:57.189255+00:00,-0.5778,-1.0433,-0.022
2026-07-08 09:50:57.189588+00:00,0.1752,-0.8828,0.2079
2026-07-08 09:50:57.189909+00:00,-0.1118,-1.2815,0.1757
2026-07-08 09:50:57.190187+00:00,-0.1288,-0.081,-0.4865
2026-07-08 09:50:57.190364+00:00,0.3475,-1.7749,0.4372
2026-07-08 09:50:57.190595+00:00,-0.5187,-0.7452,-0.4348
2026-07-08 09:50:57.238392+00:00,0.324,-1.5118,0.3514
2026-07-08 09:50:57.239285+00:00,-0.2396,-0.5885,-0.1537
2026-07-08 09:50:57.240011+00:00,0.1932,-0.4338,-0.3675
2026-07-08 09:50:57.240492+00:00,0.1581,-1.8739,0.4953
2026-07-08 09:50:57.291618+00:00,-0.5012,-0.4597,-0.6007
2026-07-08 09:50:57.292381+00:00,0.3192,-1.5601,0.3587
2026-07-08 09:50:57.292718+00:00,-0.4455,-0.7052,-0.0834
2026-07-08 09:50:57.293048+00:00,0.1313,-0.6324,-0.2001
2026-07-08 09:50:57.293417+00:00,-0.0473,-1.8329,0.3094
2026-07-08 09:50:57.293785+00:00,-0.771,-0.0956,-0.5075
2026-07-08 09:50:57.351306+00:00,0.3099,-1.5235,0.3377
2026-07-08 09:50:57.351879+00:00,-0.5705,-1.0394,0.0493
2026-07-08 09:50:57.352280+00:00,0.1425,-0.6871,0.0107
2026-07-08 09:50:57.352574+00:00,-0.1088,-1.4274,0.245
2026-07-08 09:50:57.353000+00:00,-0.0307,-0.225,-0.4333
2026-07-08 09:50:57.353314+00:00,0.3035,-1.505,0.3255
2026-07-08 09:50:57.411903+00:00,-0.588,-1.0965,-0.2694
2026-07-08 09:50:57.412384+00:00,0.1542,-0.9228,0.0181
2026-07-08 09:50:57.412849+00:00,-0.1298,-1.4201,0.2406
2026-07-08 09:50:57.413279+00:00,0.0039,-0.1903,-0.4333
2026-07-08 09:50:57.413495+00:00,0.2879,-1.4904,0.3104
2026-07-08 09:50:57.413786+00:00,-0.5763,-0.9848,-0.2045
2026-07-08 09:50:57.461599+00:00,0.1771,-0.8677,-0.0434
2026-07-08 09:50:57.462531+00:00,-0.2933,-1.4767,0.2733
2026-07-08 09:50:57.463023+00:00,0.0063,-0.0434,-0.4948
2026-07-08 09:50:57.463390+00:00,0.2674,-1.483,0.3182
2026-07-08 09:50:57.463630+00:00,-0.447,-0.6832,-0.1005
2026-07-08 09:50:57.509810+00:00,0.2899,-0.8325,-0.0571
2026-07-08 09:50:57.510276+00:00,-0.2694,-1.5601,0.3148
2026-07-08 09:50:57.510654+00:00,-0.0737,0.0512,-0.4192
2026-07-08 09:50:57.511110+00:00,0.2728,-1.5967,0.3411
2026-07-08 09:50:57.511401+00:00,-0.4538,-0.8115,-0.0429
2026-07-08 09:50:57.576423+00:00,0.2586,-0.9545,0.0156
2026-07-08 09:50:57.577001+00:00,-0.2508,-1.5484,0.0268
2026-07-08 09:50:57.577309+00:00,-0.1435,-0.2274,-0.4421
2026-07-08 09:50:57.577707+00:00,0.1698,-1.6363,0.3719
2026-07-08 09:50:57.577947+00:00,-0.4665,-0.7798,-0.0712
2026-07-08 09:50:57.578269+00:00,0.2723,-1.0116,0.1723
2026-07-08 09:50:57.636740+00:00,-0.265,-1.4986,0.0454
2026-07-08 09:50:57.637622+00:00,-0.1454,-0.2474,-0.4177
2026-07-08 09:50:57.638138+00:00,0.1513,-1.688,0.406
2026-07-08 09:50:57.638526+00:00,-0.468,-0.7105,-0.162
2026-07-08 09:50:57.638865+00:00,0.2738,-1.0224,0.1854
2026-07-08 09:50:57.639195+00:00,-0.3192,-1.0116,0.0137
2026-07-08 09:50:57.682464+00:00,0.082,-0.4343,-0.3177
2026-07-08 09:50:57.683167+00:00,0.0434,-1.7397,0.4319
2026-07-08 09:50:57.683709+00:00,-0.4441,-0.3221,-0.6051
2026-07-08 09:50:57.684055+00:00,0.3084,-1.322,0.2323
2026-07-08 09:50:57.684417+00:00,-0.4519,-1.0311,0.0224
2026-07-08 09:50:57.735192+00:00,0.1376,-0.7418,-0.1527
2026-07-08 09:50:57.735715+00:00,-0.0498,-1.7553,0.2318
2026-07-08 09:50:57.736064+00:00,-0.5998,0.0127,-0.6256
2026-07-08 09:50:57.736328+00:00,0.3133,-1.5923,0.3558
2026-07-08 09:50:57.736646+00:00,-0.591,-0.9848,-0.0444
2026-07-08 09:50:57.789021+00:00,0.2137,-0.9843,0.2347
2026-07-08 09:50:57.789566+00:00,-0.1527,-1.6455,0.1039
2026-07-08 09:50:57.789877+00:00,-0.1113,-0.2591,-0.4348
2026-07-08 09:50:57.790140+00:00,0.2713,-1.8495,0.4968
2026-07-08 09:50:57.790361+00:00,-0.5056,-0.7364,-0.144
2026-07-08 09:50:57.790541+00:00,0.3387,-1.1834,0.3592
2026-07-08 09:50:57.843590+00:00,-0.2952,-0.6178,-0.1308
2026-07-08 09:50:57.844128+00:00,0.1571,-0.6051,-0.2259
2026-07-08 09:50:57.844539+00:00,0.0049,-1.9564,0.5266
2026-07-08 09:50:57.844726+00:00,-0.7627,-0.6695,-0.5295
2026-07-08 09:50:57.844915+00:00,0.2845,-1.5411,0.346
2026-07-08 09:50:57.902558+00:00,-0.6251,-1.0834,0.0283
2026-07-08 09:50:57.903365+00:00,0.1405,-0.8208,-0.1118
2026-07-08 09:50:57.903736+00:00,-0.122,-1.893,0.1869
2026-07-08 09:50:57.904058+00:00,-0.5207,-0.425,-0.426
2026-07-08 09:50:57.904384+00:00,0.2982,-1.5152,0.346
2026-07-08 09:50:57.904710+00:00,-0.6793,-0.9501,-0.0342
2026-07-08 09:50:57.968598+00:00,0.141,-0.751,-0.1015
2026-07-08 09:50:57.969146+00:00,-0.1518,-1.808,0.1132
2026-07-08 09:50:57.969511+00:00,-0.2338,-0.3333,-0.3836
2026-07-08 09:50:57.969907+00:00,0.3509,-1.4962,0.3279
2026-07-08 09:50:57.970243+00:00,-0.6983,-0.875,-0.0512
2026-07-08 09:50:57.970527+00:00,0.1615,-0.7081,0.2176
2026-07-08 09:50:58.028346+00:00,-0.1786,-1.1414,0.0937
2026-07-08 09:50:58.028778+00:00,-0.2006,-0.3109,-0.3758
2026-07-08 09:50:58.029134+00:00,0.3353,-1.4547,0.3118
2026-07-08 09:50:58.029412+00:00,-0.669,-0.937,-0.1337
2026-07-08 09:50:58.029710+00:00,0.1532,-1.3244,0.1879
2026-07-08 09:50:58.029992+00:00,-0.3113,-1.1575,0.1078
2026-07-08 09:50:58.075077+00:00,-0.2006,-0.305,-0.4006
2026-07-08 09:50:58.075730+00:00,0.325,-1.4459,0.3841
2026-07-08 09:50:58.076019+00:00,-0.6315,-0.1913,-0.2801
2026-07-08 09:50:58.076254+00:00,0.1557,-1.161,0.1205
2026-07-08 09:50:58.076679+00:00,-0.3436,-1.2298,0.1508
2026-07-08 09:50:58.121312+00:00,-0.1391,-0.1327,-0.3616
2026-07-08 09:50:58.121532+00:00,0.3113,-1.4874,0.3733
2026-07-08 09:50:58.121812+00:00,-0.7286,-0.5202,-0.263
2026-07-08 09:50:58.122070+00:00,0.2996,-1.0263,0.0468
2026-07-08 09:50:58.122322+00:00,-0.3372,-1.2991,0.1874
2026-07-08 09:50:58.173306+00:00,-0.0795,0.0498,-0.2786
2026-07-08 09:50:58.173524+00:00,0.3211,-1.6982,0.3899
2026-07-08 09:50:58.173788+00:00,-0.3348,-0.6417,-0.2147
2026-07-08 09:50:58.174000+00:00,0.2826,-1.057,0.0659
2026-07-08 09:50:58.174302+00:00,-0.3274,-1.3093,0.039
2026-07-08 09:50:58.222235+00:00,-0.0893,-0.4934,-0.2899
2026-07-08 09:50:58.222839+00:00,0.019,-1.7319,0.4128
2026-07-08 09:50:58.223084+00:00,-0.3411,-0.3865,-0.2786
2026-07-08 09:50:58.223179+00:00,0.3006,-1.1136,0.2147
2026-07-08 09:50:58.223252+00:00,-0.3587,-1.0809,0.0215
2026-07-08 09:50:58.274880+00:00,-0.0834,-0.65,-0.205
2026-07-08 09:50:58.275360+00:00,-0.0361,-1.7539,0.4226
2026-07-08 09:50:58.275794+00:00,-0.6378,-0.4973,-0.6178
2026-07-08 09:50:58.276120+00:00,0.2899,-1.1712,0.286
2026-07-08 09:50:58.276227+00:00,-0.3709,-1.0502,0.0068
2026-07-08 09:50:58.341693+00:00,0.1518,-0.8584,-0.0693
2026-07-08 09:50:58.342228+00:00,-0.08,-1.709,0.4026
2026-07-08 09:50:58.342407+00:00,-0.4031,-0.0839,-0.551
2026-07-08 09:50:58.342517+00:00,0.3475,-1.7114,0.4011
2026-07-08 09:50:58.342623+00:00,-0.5739,-0.9335,-0.0498
2026-07-08 09:50:58.342695+00:00,0.2572,-1.0487,0.0381
2026-07-08 09:50:58.342813+00:00,-0.204,-1.5689,-0.0278
2026-07-08 09:50:58.427691+00:00,-0.2342,-0.4402,-0.388
2026-07-08 09:50:58.427931+00:00,0.1884,-1.9125,0.5251
2026-07-08 09:50:58.428251+00:00,-0.4797,-0.6124,-0.2074
2026-07-08 09:50:58.428874+00:00,0.3411,-1.3015,0.2972
2026-07-08 09:50:58.429208+00:00,-0.3162,-1.3527,-0.0312
2026-07-08 09:50:58.430046+00:00,-0.2469,-0.7837,-0.1396
2026-07-08 09:50:58.430418+00:00,-0.0615,-1.9671,0.5202
2026-07-08 09:50:58.430699+00:00,-0.7584,-0.6168,-0.1845
2026-07-08 09:50:58.508626+00:00,0.286,-1.6387,0.3543
2026-07-08 09:50:58.509299+00:00,-0.3601,-1.037,-0.0059
2026-07-08 09:50:58.509752+00:00,0.1298,-0.8447,-0.0683
2026-07-08 09:50:58.510067+00:00,-0.1327,-1.8651,0.4548
2026-07-08 09:50:58.510296+00:00,-0.3011,-0.1532,-0.4075
2026-07-08 09:50:58.510541+00:00,0.3001,-1.5162,0.3421
2026-07-08 09:50:58.510812+00:00,-0.6891,-0.8564,-0.0625
2026-07-08 09:50:58.511176+00:00,0.1625,-0.7437,-0.0942
2026-07-08 09:50:58.559863+00:00,-0.1708,-1.7744,0.1025
2026-07-08 09:50:58.560390+00:00,-0.1713,-0.2542,-0.3631
2026-07-08 09:50:58.560729+00:00,0.2845,-1.465,0.326
2026-07-08 09:50:58.561147+00:00,-0.6773,-0.8184,-0.0669
2026-07-08 09:50:58.561333+00:00,0.1835,-0.6988,0.2357
2026-07-08 09:50:58.561534+00:00,-0.1854,-1.7641,0.0854
2026-07-08 09:50:58.624878+00:00,-0.1664,-0.3001,-0.3528
2026-07-08 09:50:58.625562+00:00,0.3323,-1.4264,0.3026
2026-07-08 09:50:58.626300+00:00,-0.6778,-0.9223,-0.0273
2026-07-08 09:50:58.626738+00:00,0.1552,-0.6925,0.1952
2026-07-08 09:50:58.626960+00:00,-0.1874,-1.1634,0.1108
2026-07-08 09:50:58.627850+00:00,-0.2264,-0.3489,-0.3719
2026-07-08 09:50:58.688676+00:00,0.307,-1.4162,0.2913
2026-07-08 09:50:58.688940+00:00,-0.6446,-1.1283,-0.303
2026-07-08 09:50:58.689119+00:00,0.1479,-1.1156,0.0986
2026-07-08 09:50:58.689225+00:00,-0.325,-1.2912,0.1796
2026-07-08 09:50:58.689318+00:00,-0.0908,-0.164,-0.4568
2026-07-08 09:50:58.689397+00:00,0.2933,-1.4694,0.3479
2026-07-08 09:50:58.738610+00:00,-0.6451,-0.5173,-0.1845
2026-07-08 09:50:58.739309+00:00,0.3348,-0.9082,-0.0078
2026-07-08 09:50:58.739676+00:00,-0.2982,-1.4362,0.2577
2026-07-08 09:50:58.739927+00:00,-0.0795,0.0659,-0.3211
2026-07-08 09:50:58.740145+00:00,0.2952,-1.444,0.3621
2026-07-08 09:50:58.788844+00:00,-0.3894,-0.7549,-0.082
2026-07-08 09:50:58.789349+00:00,0.2708,-0.9867,0.0429
2026-07-08 09:50:58.790006+00:00,-0.2796,-1.4674,0.2669
2026-07-08 09:50:58.790204+00:00,-0.1186,0.0044,-0.4021
2026-07-08 09:50:58.790579+00:00,0.3055,-1.6558,0.3772
2026-07-08 09:50:58.791104+00:00,-0.4534,-0.7037,-0.1098
2026-07-08 09:50:58.837004+00:00,0.2786,-0.9697,0.0361
2026-07-08 09:50:58.837632+00:00,-0.2933,-1.443,0.02
2026-07-08 09:50:58.838414+00:00,-0.1225,-0.327,-0.3723
2026-07-08 09:50:58.838582+00:00,0.101,-1.7065,0.4089
2026-07-08 09:50:58.884827+00:00,-0.3689,-0.63,-0.2181
2026-07-08 09:50:58.885309+00:00,0.283,-1.0555,0.1918
2026-07-08 09:50:58.885530+00:00,-0.3357,-1.057,0.0142
2026-07-08 09:50:58.885671+00:00,0.0224,-0.5183,-0.2747
2026-07-08 09:50:58.886046+00:00,0.0146,-1.7461,0.4304
2026-07-08 09:50:58.949331+00:00,-0.5017,-0.3421,-0.5095
2026-07-08 09:50:58.967383+00:00,0.304,-1.16,0.2513
2026-07-08 09:50:58.967812+00:00,-0.3714,-1.0458,0.0195
2026-07-08 09:50:58.968064+00:00,0.141,-0.7793,-0.1225
2026-07-08 09:50:58.968184+00:00,-0.0605,-1.7373,0.4085
2026-07-08 09:50:58.968292+00:00,-0.5475,-0.2704,-0.6022
2026-07-08 09:50:58.996786+00:00,0.3274,-1.6475,0.3733
2026-07-08 09:50:58.997255+00:00,-0.588,-0.9599,-0.0556
2026-07-08 09:50:58.997555+00:00,0.2333,-0.9843,0.0005
2026-07-08 09:50:58.997866+00:00,-0.1527,-1.6304,0.0732
2026-07-08 09:50:58.998121+00:00,-0.1532,-0.3216,-0.4124
2026-07-08 09:50:59.062866+00:00,0.2557,-1.8568,0.4997
2026-07-08 09:50:59.063718+00:00,-0.4729,-0.7061,-0.183
2026-07-08 09:50:59.064319+00:00,0.344,-1.1702,0.3689
2026-07-08 09:50:59.064716+00:00,-0.2996,-0.547,-0.1474
2026-07-08 09:50:59.065247+00:00,0.1405,-0.5573,-0.2469
2026-07-08 09:50:59.065691+00:00,0.0137,-1.912,0.5114
2026-07-08 09:50:59.066108+00:00,-0.6876,-0.55,-0.5275
2026-07-08 09:50:59.122350+00:00,0.286,-1.5177,0.3421
2026-07-08 09:50:59.129163+00:00,-0.5383,-1.0087,0.0429
2026-07-08 09:50:59.129656+00:00,0.1444,-0.7281,-0.1484
2026-07-08 09:50:59.130126+00:00,-0.0981,-1.8598,0.4568
2026-07-08 09:50:59.130424+00:00,-0.7349,-0.6529,-0.4372
2026-07-08 09:50:59.130692+00:00,0.2811,-1.5118,0.3353
2026-07-08 09:50:59.170984+00:00,-0.6173,-1.1263,0.0498
2026-07-08 09:50:59.171475+00:00,0.1376,-0.6934,-0.1591
2026-07-08 09:50:59.171785+00:00,-0.1342,-1.83,0.2108
2026-07-08 09:50:59.172067+00:00,-0.6647,-0.286,-0.4016
2026-07-08 09:50:59.172246+00:00,0.3094,-1.4884,0.3172
2026-07-08 09:50:59.222151+00:00,-0.6022,-1.137,0.0673
2026-07-08 09:50:59.222563+00:00,0.1557,-0.6783,0.0425
2026-07-08 09:50:59.222886+00:00,-0.1454,-1.443,0.2279
2026-07-08 09:50:59.223130+00:00,-0.1103,-0.2186,-0.4226
2026-07-08 09:50:59.223510+00:00,0.2904,-1.4674,0.3011
2026-07-08 09:50:59.272887+00:00,-0.5802,-0.9579,-0.2074
2026-07-08 09:50:59.273536+00:00,0.1801,-0.6827,-0.0488
2026-07-08 09:50:59.273775+00:00,-0.1127,-1.4943,0.2826
2026-07-08 09:50:59.274203+00:00,-0.0088,-0.0229,-0.5026
2026-07-08 09:50:59.274584+00:00,0.2669,-1.4689,0.2982
2026-07-08 09:50:59.320501+00:00,-0.364,-0.6505,-0.0752
2026-07-08 09:50:59.321193+00:00,0.1718,-0.8506,-0.0444
2026-07-08 09:50:59.321541+00:00,-0.2484,-1.586,0.325
2026-07-08 09:50:59.321694+00:00,-0.1103,0.039,-0.549
2026-07-08 09:50:59.322014+00:00,0.2796,-1.4054,0.3504
2026-07-08 09:50:59.368786+00:00,-0.3196,-0.8242,-0.0625
2026-07-08 09:50:59.369385+00:00,0.2596,-0.9911,0.0283
2026-07-08 09:50:59.370091+00:00,-0.2386,-1.5582,0.3133
2026-07-08 09:50:59.371062+00:00,-0.1645,-0.0229,-0.4524
2026-07-08 09:50:59.422603+00:00,0.3026,-1.6704,0.3699
2026-07-08 09:50:59.423196+00:00,-0.3392,-0.7759,-0.0732
2026-07-08 09:50:59.423483+00:00,0.2699,-0.9916,0.0312
2026-07-08 09:50:59.423728+00:00,-0.2586,-1.5148,0.2982
2026-07-08 09:50:59.423991+00:00,-0.1503,0.0425,-0.4202
2026-07-08 09:50:59.483546+00:00,0.3274,-1.6924,0.4085
2026-07-08 09:50:59.484249+00:00,-0.4758,-0.6808,-0.1669
2026-07-08 09:50:59.484500+00:00,0.2738,-1.0311,0.0644
2026-07-08 09:50:59.484654+00:00,-0.3152,-1.3679,0.0161
2026-07-08 09:50:59.484932+00:00,-0.1235,-0.4368,-0.3182
2026-07-08 09:50:59.485071+00:00,0.0459,-1.7378,0.4363
2026-07-08 09:50:59.485485+00:00,-0.4509,-0.3099,-0.2923
2026-07-08 09:50:59.546082+00:00,0.3089,-1.16,0.2386
2026-07-08 09:50:59.546595+00:00,-0.3826,-1.039,0.0244
2026-07-08 09:50:59.546912+00:00,0.1357,-0.7354,-0.1518
2026-07-08 09:50:59.547563+00:00,-0.0483,-1.7519,0.4241
2026-07-08 09:50:59.547817+00:00,-0.5939,-0.3382,-0.6144
2026-07-08 09:50:59.548329+00:00,0.3177,-1.5787,0.3592
2026-07-08 09:50:59.613274+00:00,-0.285,-0.9618,-0.0708
2026-07-08 09:50:59.613751+00:00,0.222,-0.9394,-0.0249
2026-07-08 09:50:59.613951+00:00,-0.1459,-1.6665,0.3772
2026-07-08 09:50:59.614273+00:00,-0.1205,0.2489,-0.4143
2026-07-08 09:50:59.614510+00:00,0.3606,-1.8207,0.4831
2026-07-08 09:50:59.614625+00:00,-0.4504,-0.6383,-0.1728
2026-07-08 09:50:59.614704+00:00,0.3504,-1.0858,0.0688
2026-07-08 09:50:59.675917+00:00,-0.283,-1.4596,-0.1742
2026-07-08 09:50:59.676645+00:00,-0.1654,-0.4699,-0.3006
2026-07-08 09:50:59.676940+00:00,0.0581,-1.8598,0.4943
2026-07-08 09:50:59.677114+00:00,-0.6344,-0.4192,-0.2484
2026-07-08 09:50:59.677336+00:00,0.3001,-1.423,0.3426
2026-07-08 09:50:59.677842+00:00,-0.3997,-0.8184,-0.022
2026-07-08 09:50:59.737773+00:00,0.1303,-0.6481,-0.1903
2026-07-08 09:50:59.738151+00:00,-0.0649,-1.8188,0.449
2026-07-08 09:50:59.738524+00:00,-0.752,-0.6637,-0.489
2026-07-08 09:50:59.738744+00:00,0.2757,-1.5226,0.3289
2026-07-08 09:50:59.738864+00:00,-0.5505,-1.0341,0.0566
2026-07-08 09:50:59.739237+00:00,0.1435,-0.6608,-0.1723
2026-07-08 09:50:59.785409+00:00,-0.1059,-1.8036,0.4216
2026-07-08 09:50:59.785884+00:00,-0.6934,-0.6651,-0.4504
2026-07-08 09:50:59.786469+00:00,0.2786,-1.5026,0.3167
2026-07-08 09:50:59.786755+00:00,-0.5602,-0.9902,0.0473
2026-07-08 09:50:59.787430+00:00,0.1459,-0.6383,-0.1806
2026-07-08 09:50:59.836429+00:00,-0.1054,-1.7768,0.2835
2026-07-08 09:50:59.836798+00:00,-0.612,-0.0834,-0.4846
2026-07-08 09:50:59.837371+00:00,0.2679,-1.4928,0.3109
2026-07-08 09:50:59.838071+00:00,-0.4304,-0.6608,-0.1078
2026-07-08 09:50:59.838535+00:00,0.1503,-0.5924,-0.1025
2026-07-08 09:50:59.886147+00:00,-0.0444,-1.6021,0.3309
2026-07-08 09:50:59.886675+00:00,-0.0264,0.0268,-0.5339
2026-07-08 09:50:59.886987+00:00,0.2523,-1.4777,0.3074
2026-07-08 09:50:59.887472+00:00,-0.2025,-0.5148,-0.0449
2026-07-08 09:50:59.887796+00:00,0.182,-0.7696,-0.0669
2026-07-08 09:50:59.951426+00:00,-0.2284,-1.7153,0.3831
2026-07-08 09:50:59.951803+00:00,-0.1664,-0.0142,-0.5358
2026-07-08 09:50:59.951946+00:00,0.2586,-1.3937,0.2542
2026-07-08 09:50:59.952044+00:00,-0.3162,-0.8438,-0.0293
2026-07-08 09:50:59.952442+00:00,0.1776,-0.9433,-0.0127
2026-07-08 09:50:59.952713+00:00,-0.2064,-1.7012,0.3767
2026-07-08 09:50:59.953581+00:00,-0.2528,-0.1025,-0.4787
2026-07-08 09:51:00.013771+00:00,0.307,-1.3732,0.3518
2026-07-08 09:51:00.014521+00:00,-0.3631,-0.9238,-0.0542
2026-07-08 09:51:00.014946+00:00,0.222,-0.9916,0.0044
2026-07-08 09:51:00.015230+00:00,-0.1962,-1.6626,0.3616
2026-07-08 09:51:00.015468+00:00,-0.2435,-0.0669,-0.507
2026-07-08 09:51:00.015698+00:00,0.3148,-1.6411,0.3777
2026-07-08 09:51:00.062190+00:00,-0.4851,-0.8125,-0.0791
2026-07-08 09:51:00.062556+00:00,0.2494,-1.0087,0.0288
2026-07-08 09:51:00.063036+00:00,-0.224,-1.587,0.0839
2026-07-08 09:51:00.063356+00:00,-0.1781,-0.1937,-0.4538
2026-07-08 09:51:00.063602+00:00,0.3299,-1.688,0.4202
2026-07-08 09:51:00.121736+00:00,-0.4768,-0.6964,-0.1513
2026-07-08 09:51:00.122094+00:00,0.2684,-1.0438,0.0703
2026-07-08 09:51:00.122525+00:00,-0.3079,-1.3796,0.0044
2026-07-08 09:51:00.122803+00:00,-0.144,-0.4236,-0.324
2026-07-08 09:51:00.123043+00:00,0.0566,-1.747,0.4441
2026-07-08 09:51:00.123165+00:00,-0.4914,-0.3294,-0.283
2026-07-08 09:51:00.170346+00:00,0.3055,-1.1707,0.242
2026-07-08 09:51:00.170971+00:00,-0.4128,-1.0482,0.0298
2026-07-08 09:51:00.171292+00:00,0.1303,-0.7222,-0.1493
2026-07-08 09:51:00.171508+00:00,-0.0556,-1.7607,0.4241
2026-07-08 09:51:00.171743+00:00,-0.5714,-0.2977,-0.5934
2026-07-08 09:51:00.221042+00:00,0.325,-1.6177,0.3684
2026-07-08 09:51:00.221292+00:00,-0.7164,-0.876,-0.0976
2026-07-08 09:51:00.221476+00:00,0.2137,-0.834,-0.0708
2026-07-08 09:51:00.221962+00:00,-0.1532,-1.6978,0.1181
2026-07-08 09:51:00.222395+00:00,-0.1137,0.2943,-0.4011
2026-07-08 09:51:00.307407+00:00,0.3304,-1.7236,0.4275
2026-07-08 09:51:00.308043+00:00,-0.4499,-0.6754,-0.1357
2026-07-08 09:51:00.308838+00:00,0.3592,-0.8974,-0.0224
2026-07-08 09:51:00.309320+00:00,-0.2474,-1.5567,-0.1908
2026-07-08 09:51:00.310088+00:00,-0.0122,-0.3665,-0.3919
2026-07-08 09:51:00.310741+00:00,0.1913,-1.7178,0.4192
2026-07-08 09:51:00.311019+00:00,-0.3621,-0.672,-0.2406
2026-07-08 09:51:00.311341+00:00,0.3606,-1.1034,0.3528
2026-07-08 09:51:00.386818+00:00,-0.2952,-0.4948,-0.1879
2026-07-08 09:51:00.387403+00:00,0.1484,-0.386,-0.3606
2026-07-08 09:51:00.387568+00:00,0.1166,-1.6724,0.3987
2026-07-08 09:51:00.387866+00:00,-0.3587,-0.6056,-0.5915
2026-07-08 09:51:00.388101+00:00,0.3553,-1.6226,0.3416
2026-07-08 09:51:00.388371+00:00,-0.185,-0.5109,-0.1918
2026-07-08 09:51:00.388488+00:00,0.1688,-0.3841,-0.3645
2026-07-08 09:51:00.388636+00:00,0.1459,-1.6324,0.4963
2026-07-08 09:51:00.474065+00:00,-0.3821,-0.0171,-0.5563
2026-07-08 09:51:00.474399+00:00,0.366,-1.5226,0.3274
2026-07-08 09:51:00.475068+00:00,-0.3148,-0.832,-0.1376
2026-07-08 09:51:00.475742+00:00,0.1732,-0.3567,-0.3294
2026-07-08 09:51:00.476890+00:00,0.242,-1.5889,0.4065
2026-07-08 09:51:00.477305+00:00,-0.4836,-0.2777,-0.4021
2026-07-08 09:51:00.477585+00:00,0.2879,-1.484,0.2757
2026-07-08 09:51:00.477703+00:00,-0.5153,-1.2722,0.082
2026-07-08 09:51:00.477892+00:00,0.0005,-0.3436,-0.1049
2026-07-08 09:51:00.530012+00:00,0.3089,-1.8768,0.4348
2026-07-08 09:51:00.530446+00:00,-0.3675,-0.3875,-0.324
2026-07-08 09:51:00.531105+00:00,0.3328,-1.3142,0.1903
2026-07-08 09:51:00.531464+00:00,-0.4353,-1.2215,0.0581
2026-07-08 09:51:00.531792+00:00,-0.0825,-0.895,-0.061
2026-07-08 09:51:00.532413+00:00,-0.2108,-1.8212,0.4319
2026-07-08 09:51:00.592816+00:00,-0.3963,-0.3767,-0.3333
2026-07-08 09:51:00.593535+00:00,0.3362,-1.3352,0.3333
2026-07-08 09:51:00.593931+00:00,-0.4641,-1.2273,0.0551
2026-07-08 09:51:00.594215+00:00,-0.0878,-0.8926,-0.0644
2026-07-08 09:51:00.594476+00:00,-0.1288,-1.8232,0.4368
2026-07-08 09:51:00.594728+00:00,-0.3875,-0.2811,-0.386
2026-07-08 09:51:00.653560+00:00,0.3362,-1.3703,0.3455
2026-07-08 09:51:00.653950+00:00,-0.4797,-1.017,-0.0151
2026-07-08 09:51:00.654278+00:00,0.2045,-0.9697,-0.0195
2026-07-08 09:51:00.654524+00:00,-0.1493,-1.7768,0.4226
2026-07-08 09:51:00.654840+00:00,-0.3265,-0.0869,-0.5592
2026-07-08 09:51:00.655121+00:00,0.3294,-1.649,0.388
2026-07-08 09:51:00.718890+00:00,-0.4846,-0.8325,-0.0874
2026-07-08 09:51:00.719423+00:00,0.2357,-1.057,0.0464
2026-07-08 09:51:00.719726+00:00,-0.2098,-1.6041,0.0449
2026-07-08 09:51:00.720002+00:00,-0.2011,-0.1566,-0.4665
2026-07-08 09:51:00.720272+00:00,0.2235,-1.7256,0.4407
2026-07-08 09:51:00.720522+00:00,-0.4768,-0.6793,-0.1835
2026-07-08 09:51:00.772333+00:00,0.266,-1.079,0.203
2026-07-08 09:51:00.772736+00:00,-0.3231,-1.3191,-0.0029
2026-07-08 09:51:00.773333+00:00,-0.144,-0.509,-0.2865
2026-07-08 09:51:00.773470+00:00,0.039,-1.7592,0.448
2026-07-08 09:51:00.773582+00:00,-0.7154,-0.4763,-0.2318
2026-07-08 09:51:00.773839+00:00,0.2982,-1.199,0.2889
2026-07-08 09:51:00.821510+00:00,-0.4221,-1.0433,-0.0073
2026-07-08 09:51:00.822054+00:00,0.143,-0.794,-0.0971
2026-07-08 09:51:00.822218+00:00,-0.08,-1.7329,0.4153
2026-07-08 09:51:00.822331+00:00,-0.2972,0.0639,-0.509
2026-07-08 09:51:00.822718+00:00,0.3445,-1.7031,0.4065
2026-07-08 09:51:00.869183+00:00,-0.5114,-0.7486,-0.12
2026-07-08 09:51:00.869697+00:00,0.2845,-0.8862,-0.0381
2026-07-08 09:51:00.870082+00:00,-0.1986,-1.6299,-0.0512
2026-07-08 09:51:00.870373+00:00,-0.1054,-0.3138,-0.4065
2026-07-08 09:51:00.870692+00:00,0.3387,-1.7558,0.4402
2026-07-08 09:51:00.919944+00:00,-0.3987,-0.6822,-0.1893
2026-07-08 09:51:00.920430+00:00,0.3621,-1.0497,0.3655
2026-07-08 09:51:00.920860+00:00,-0.2889,-1.4767,-0.1859
2026-07-08 09:51:00.921284+00:00,-0.0791,-0.4089,-0.3567
2026-07-08 09:51:00.921745+00:00,0.124,-1.7226,0.428
2026-07-08 09:51:00.928763+00:00,-0.4119,-0.5539,-0.2528
2026-07-08 09:51:00.982543+00:00,0.3436,-1.2151,0.3475
2026-07-08 09:51:00.983162+00:00,-0.3123,-0.4631,-0.1893
2026-07-08 09:51:00.983698+00:00,0.1488,-0.4387,-0.3294
2026-07-08 09:51:00.984042+00:00,0.0878,-1.6895,0.406
2026-07-08 09:51:00.984499+00:00,-0.3767,-0.6295,-0.5632
2026-07-08 09:51:01.045122+00:00,0.3562,-1.5069,0.3289
2026-07-08 09:51:01.045839+00:00,-0.183,-0.4792,-0.1908
2026-07-08 09:51:01.046255+00:00,0.1771,-0.4226,-0.346
2026-07-08 09:51:01.046580+00:00,0.1454,-1.6675,0.3948
2026-07-08 09:51:01.046868+00:00,-0.4641,-0.0815,-0.5461
2026-07-08 09:51:01.047163+00:00,0.3587,-1.465,0.2879
2026-07-08 09:51:01.106504+00:00,-0.3177,-0.8813,-0.0981
2026-07-08 09:51:01.107180+00:00,0.1703,-0.4202,-0.0761
2026-07-08 09:51:01.107708+00:00,0.224,-1.6865,0.4138
2026-07-08 09:51:01.108167+00:00,-0.5646,-0.1835,-0.4377
2026-07-08 09:51:01.108547+00:00,0.3045,-1.3449,0.2167
2026-07-08 09:51:01.108937+00:00,-0.4709,-1.241,0.0776
2026-07-08 09:51:01.158749+00:00,-0.0039,-0.3353,-0.0181
2026-07-08 09:51:01.159075+00:00,0.205,-1.7392,0.3855
2026-07-08 09:51:01.159328+00:00,-0.3226,-0.2294,-0.4177
2026-07-08 09:51:01.159446+00:00,0.3265,-1.3708,0.2377
2026-07-08 09:51:01.159570+00:00,-0.4475,-1.201,-0.021
2026-07-08 09:51:01.159749+00:00,0.0508,-0.9448,-0.0303
2026-07-08 09:51:01.206553+00:00,-0.1601,-1.7295,0.3919
2026-07-08 09:51:01.207043+00:00,-0.3104,-0.1444,-0.466
2026-07-08 09:51:01.207388+00:00,0.326,-1.3991,0.366
2026-07-08 09:51:01.207608+00:00,-0.3309,-0.9267,-0.0654
2026-07-08 09:51:01.258401+00:00,0.1562,-1.0077,0.0122
2026-07-08 09:51:01.258973+00:00,-0.1932,-1.6694,0.3684
2026-07-08 09:51:01.259291+00:00,-0.2411,-0.0063,-0.5475
2026-07-08 09:51:01.259677+00:00,0.3231,-1.4508,0.4016
2026-07-08 09:51:01.259981+00:00,-0.3431,-0.7627,-0.0815
2026-07-08 09:51:01.319802+00:00,0.265,-1.0438,0.0605
2026-07-08 09:51:01.320093+00:00,-0.2518,-1.5001,0.2972
2026-07-08 09:51:01.320609+00:00,-0.1723,0.0898,-0.3972
2026-07-08 09:51:01.320827+00:00,0.3567,-1.729,0.4392
2026-07-08 09:51:01.321118+00:00,-0.3562,-0.5666,-0.2503
2026-07-08 09:51:01.321517+00:00,0.285,-1.097,0.0952
2026-07-08 09:51:01.321874+00:00,-0.3392,-1.2551,0.022
2026-07-08 09:51:01.382405+00:00,-0.1157,-0.609,-0.2303
2026-07-08 09:51:01.383063+00:00,0.002,-1.7602,0.4319
2026-07-08 09:51:01.383679+00:00,-0.6866,-0.4729,-0.265
2026-07-08 09:51:01.384193+00:00,0.2977,-1.1849,0.3074
2026-07-08 09:51:01.385028+00:00,-0.365,-1.0448,-0.0112
2026-07-08 09:51:01.385481+00:00,0.1254,-0.8574,-0.059
2026-07-08 09:51:01.430299+00:00,-0.0844,-1.6968,0.3997
2026-07-08 09:51:01.430686+00:00,-0.2386,0.1118,-0.6305
2026-07-08 09:51:01.431180+00:00,0.3528,-1.2678,0.426
2026-07-08 09:51:01.431548+00:00,-0.286,-0.8047,-0.1035
2026-07-08 09:51:01.432117+00:00,0.2972,-0.9955,0.0137
2026-07-08 09:51:01.498837+00:00,-0.2123,-1.5875,0.3348
2026-07-08 09:51:01.499117+00:00,-0.1742,0.1474,-0.3826
2026-07-08 09:51:01.499271+00:00,0.3572,-1.8412,0.4831
2026-07-08 09:51:01.499800+00:00,-0.4231,-0.6647,-0.2484
2026-07-08 09:51:01.500660+00:00,0.3357,-1.1834,0.1152
2026-07-08 09:51:01.501707+00:00,-0.3045,-1.3962,-0.1713
2026-07-08 09:51:01.559861+00:00,-0.2186,-0.5173,-0.2699
2026-07-08 09:51:01.560279+00:00,0.0366,-1.8032,0.468
2026-07-08 09:51:01.560632+00:00,-0.5983,-0.3753,-0.2655
2026-07-08 09:51:01.561021+00:00,0.3148,-1.3644,0.3396
2026-07-08 09:51:01.561174+00:00,-0.3177,-1.3054,-0.1474
2026-07-08 09:51:01.561506+00:00,0.2015,-0.5568,-0.2435
2026-07-08 09:51:01.562116+00:00,-0.0044,-1.7378,0.4255
2026-07-08 09:51:01.606243+00:00,-0.5012,-0.4089,-0.2557
2026-07-08 09:51:01.606551+00:00,0.3211,-1.3313,0.3299
2026-07-08 09:51:01.606821+00:00,-0.3177,-0.4724,-0.1747
2026-07-08 09:51:01.607088+00:00,0.1557,-0.5051,-0.286
2026-07-08 09:51:01.668493+00:00,0.0498,-1.6973,0.4041
2026-07-08 09:51:01.669077+00:00,-0.386,-0.691,-0.5553
2026-07-08 09:51:01.669393+00:00,0.3523,-1.4747,0.3055
2026-07-08 09:51:01.669685+00:00,-0.284,-0.5978,-0.1737
2026-07-08 09:51:01.669913+00:00,0.1879,-0.447,-0.325
2026-07-08 09:51:01.670165+00:00,0.1688,-1.689,0.407
2026-07-08 09:51:01.670364+00:00,-0.5529,-0.1235,-0.4724
2026-07-08 09:51:01.717057+00:00,0.2791,-1.3518,0.2259
2026-07-08 09:51:01.717632+00:00,-0.0996,-1.1912,0.0551
2026-07-08 09:51:01.717967+00:00,0.0351,-0.3894,-0.0268
2026-07-08 09:51:01.718311+00:00,0.1967,-1.7412,0.3845
2026-07-08 09:51:01.768814+00:00,-0.5549,-0.2333,-0.4128
2026-07-08 09:51:01.769173+00:00,0.3192,-1.3601,0.2255
2026-07-08 09:51:01.769424+00:00,-0.4841,-1.2512,0.0849
2026-07-08 09:51:01.769660+00:00,-0.0102,-0.366,-0.0449
2026-07-08 09:51:01.769860+00:00,0.2284,-1.7529,0.3958
2026-07-08 09:51:01.770093+00:00,-0.3294,-0.2098,-0.425
2026-07-08 09:51:01.825220+00:00,0.3235,-1.3781,0.2401
2026-07-08 09:51:01.825639+00:00,-0.4465,-1.1814,-0.0322
2026-07-08 09:51:01.825997+00:00,0.0571,-0.956,-0.02
2026-07-08 09:51:01.826204+00:00,-0.164,-1.7339,0.3953
2026-07-08 09:51:01.826414+00:00,-0.3016,-0.1108,-0.4821
2026-07-08 09:51:01.908775+00:00,0.3231,-1.4108,0.3733
2026-07-08 09:51:01.909376+00:00,-0.3489,-0.8711,-0.0727
2026-07-08 09:51:01.909533+00:00,0.2264,-1.0102,0.0171
2026-07-08 09:51:01.909640+00:00,-0.1952,-1.6426,0.3577
2026-07-08 09:51:01.909720+00:00,-0.225,0.0024,-0.429
2026-07-08 09:51:01.909796+00:00,0.3235,-1.7085,0.4011
2026-07-08 09:51:01.909888+00:00,-0.3577,-0.7476,-0.0898
2026-07-08 09:51:01.910011+00:00,0.2679,-1.0346,0.0595
2026-07-08 09:51:01.985152+00:00,-0.2582,-1.4777,0.2855
2026-07-08 09:51:01.985683+00:00,-0.1649,0.081,-0.386
2026-07-08 09:51:01.986147+00:00,0.3562,-1.7207,0.4329
2026-07-08 09:51:01.986543+00:00,-0.3509,-0.5563,-0.2528
2026-07-08 09:51:01.986668+00:00,0.283,-1.0897,0.0917
2026-07-08 09:51:01.986912+00:00,-0.3367,-1.2522,0.021
2026-07-08 09:51:01.987552+00:00,-0.1132,-0.5954,-0.2381
2026-07-08 09:51:01.987864+00:00,0.0088,-1.7505,0.429
2026-07-08 09:51:02.076447+00:00,-0.6715,-0.4963,-0.2469
2026-07-08 09:51:02.076975+00:00,0.2943,-1.1761,0.2918
2026-07-08 09:51:02.077640+00:00,-0.3777,-1.0526,-0.0015
2026-07-08 09:51:02.078057+00:00,0.2352,-0.8433,-0.0742
2026-07-08 09:51:02.078458+00:00,-0.0678,-1.6992,0.3982
2026-07-08 09:51:02.078954+00:00,-0.367,-0.0195,-0.5256
2026-07-08 09:51:02.079220+00:00,0.3484,-1.7383,0.4065
2026-07-08 09:51:02.079406+00:00,-0.3074,-0.913,-0.0664
2026-07-08 09:51:02.079525+00:00,0.2679,-1.0121,0.021
2026-07-08 09:51:02.121946+00:00,-0.1898,-1.5875,0.3348
2026-07-08 09:51:02.122472+00:00,-0.2162,0.1947,-0.3889
2026-07-08 09:51:02.122784+00:00,0.3665,-1.8564,0.4963
2026-07-08 09:51:02.122975+00:00,-0.4621,-0.7096,-0.1864
2026-07-08 09:51:02.123224+00:00,0.3392,-1.1888,0.1235
2026-07-08 09:51:02.173025+00:00,-0.2987,-1.4098,-0.144
2026-07-08 09:51:02.173424+00:00,-0.2235,-0.5714,-0.2435
2026-07-08 09:51:02.173696+00:00,0.0234,-1.8856,0.4958
2026-07-08 09:51:02.174058+00:00,-0.6061,-0.5075,-0.2059
2026-07-08 09:51:02.174382+00:00,0.2996,-1.4762,0.3416
2026-07-08 09:51:02.226442+00:00,-0.3948,-0.8267,-0.0151
2026-07-08 09:51:02.226906+00:00,0.2225,-0.6998,-0.1654
2026-07-08 09:51:02.227306+00:00,-0.0761,-1.85,0.4602
2026-07-08 09:51:02.227530+00:00,-0.7086,-0.6066,-0.4929
2026-07-08 09:51:02.227865+00:00,0.2884,-1.5172,0.3221
2026-07-08 09:51:02.288863+00:00,-0.4499,-0.9004,0.0107
2026-07-08 09:51:02.289430+00:00,0.1693,-0.6866,-0.1645
2026-07-08 09:51:02.289745+00:00,-0.0932,-1.8158,0.4368
2026-07-08 09:51:02.290055+00:00,-0.6022,-0.5749,-0.4973
2026-07-08 09:51:02.290300+00:00,0.3089,-1.4825,0.3084
2026-07-08 09:51:02.290612+00:00,-0.4714,-0.7032,-0.0737
2026-07-08 09:51:02.352224+00:00,0.1664,-0.6554,-0.1825
2026-07-08 09:51:02.352610+00:00,-0.0547,-1.8041,0.3196
2026-07-08 09:51:02.352885+00:00,-0.4607,0.0278,-0.5368
2026-07-08 09:51:02.353151+00:00,0.2679,-1.4362,0.2821
2026-07-08 09:51:02.353471+00:00,-0.2796,-0.6603,-0.1025
2026-07-08 09:51:02.353715+00:00,0.1825,-0.6427,-0.0142
2026-07-08 09:51:02.353850+00:00,0.02,-1.5738,0.3372
2026-07-08 09:51:02.412524+00:00,-0.243,0.0161,-0.549
2026-07-08 09:51:02.412993+00:00,0.2855,-1.3864,0.2542
2026-07-08 09:51:02.413511+00:00,-0.3162,-0.8355,-0.0547
2026-07-08 09:51:02.414283+00:00,0.1932,-1.0028,0.0293
2026-07-08 09:51:02.414809+00:00,0.039,-1.5797,0.3187
2026-07-08 09:51:02.415310+00:00,-0.1884,-0.0317,-0.5305
2026-07-08 09:51:02.475657+00:00,0.306,-1.4079,0.2689
2026-07-08 09:51:02.476264+00:00,-0.3201,-0.7862,-0.0644
2026-07-08 09:51:02.476642+00:00,0.1869,-0.9823,0.021
2026-07-08 09:51:02.476961+00:00,-0.2377,-1.5465,0.3123
2026-07-08 09:51:02.477128+00:00,-0.1596,0.0586,-0.5822
2026-07-08 09:51:02.524357+00:00,0.3206,-1.464,0.4002
2026-07-08 09:51:02.524630+00:00,-0.4553,-0.7125,-0.1327
2026-07-08 09:51:02.524771+00:00,0.2718,-1.0165,0.06
2026-07-08 09:51:02.524860+00:00,-0.2918,-1.4103,0.2499
2026-07-08 09:51:02.524934+00:00,-0.1332,0.0815,-0.3362
2026-07-08 09:51:02.525003+00:00,0.3616,-1.6743,0.4285
2026-07-08 09:51:02.594153+00:00,-0.2699,-0.4714,-0.2747
2026-07-08 09:51:02.595111+00:00,0.3006,-1.1297,0.0986
2026-07-08 09:51:02.595368+00:00,-0.3484,-1.2088,0.0234
2026-07-08 09:51:02.595600+00:00,-0.0966,-0.0112,-0.1957
2026-07-08 09:51:02.595816+00:00,0.3396,-1.7553,0.4275
2026-07-08 09:51:02.596192+00:00,-0.6808,-0.4534,-0.2874
2026-07-08 09:51:02.596532+00:00,0.2972,-1.1761,0.1571
2026-07-08 09:51:02.655978+00:00,-0.3514,-1.0336,-0.0049
2026-07-08 09:51:02.656458+00:00,-0.001,-0.9062,-0.0346
2026-07-08 09:51:02.656826+00:00,-0.082,-1.6802,0.386
2026-07-08 09:51:02.657231+00:00,-0.2264,0.1108,-0.6344
2026-07-08 09:51:02.657614+00:00,0.364,-1.2512,0.4343
2026-07-08 09:51:02.657991+00:00,-0.3509,-0.8696,-0.0727
2026-07-08 09:51:02.717334+00:00,0.2923,-1.0829,0.0664
2026-07-08 09:51:02.718708+00:00,-0.2245,-1.5148,0.3001
2026-07-08 09:51:02.719301+00:00,-0.2294,0.1547,-0.3362
2026-07-08 09:51:02.719769+00:00,0.386,-1.9481,0.5222
2026-07-08 09:51:02.720181+00:00,-0.608,-0.5163,-0.2406
2026-07-08 09:51:02.720550+00:00,0.3328,-1.3625,0.202
2026-07-08 09:51:02.770477+00:00,-0.3889,-1.341,0.02
2026-07-08 09:51:02.770946+00:00,-0.2289,-0.1357,-0.1249
2026-07-08 09:51:02.771297+00:00,0.3938,-1.9286,0.5051
2026-07-08 09:51:02.771636+00:00,-0.7276,-0.5778,-0.1918
2026-07-08 09:51:02.771920+00:00,0.2865,-1.6182,0.3265
2026-07-08 09:51:02.772184+00:00,-0.4612,-1.2942,0.022
2026-07-08 09:51:02.825101+00:00,0.0293,-0.815,-0.0991
2026-07-08 09:51:02.825650+00:00,-0.1322,-1.8637,0.4455
2026-07-08 09:51:02.825852+00:00,-0.4709,-0.3967,-0.344
2026-07-08 09:51:02.826133+00:00,0.2977,-1.6002,0.3274
2026-07-08 09:51:02.826734+00:00,-0.3811,-1.0258,-0.002
2026-07-08 09:51:02.884890+00:00,0.1347,-0.7286,-0.1303
2026-07-08 09:51:02.885536+00:00,-0.1606,-1.8178,0.4172
2026-07-08 09:51:02.885874+00:00,-0.425,-0.4089,-0.3821
2026-07-08 09:51:02.886171+00:00,0.285,-1.4494,0.3065
2026-07-08 09:51:02.886511+00:00,-0.7266,-1.1258,0.0346
2026-07-08 09:51:02.886817+00:00,0.1464,-0.7139,-0.1474
2026-07-08 09:51:02.948908+00:00,-0.1801,-1.8271,0.1771
2026-07-08 09:51:02.949442+00:00,-0.5075,-0.5153,-0.4192
2026-07-08 09:51:02.950486+00:00,0.2987,-1.4611,0.3006
2026-07-08 09:51:02.951415+00:00,-0.6471,-1.0751,0.0742
2026-07-08 09:51:02.951918+00:00,0.2069,-0.7579,-0.1254
2026-07-08 09:51:02.952102+00:00,-0.1474,-1.8612,0.2494
2026-07-08 09:51:03.011363+00:00,-0.4509,0.0156,-0.5334
2026-07-08 09:51:03.011865+00:00,0.3011,-1.4279,0.2767
2026-07-08 09:51:03.012268+00:00,-0.4333,-0.8369,-0.0151
2026-07-08 09:51:03.012681+00:00,0.1835,-0.7608,0.0102
2026-07-08 09:51:03.012891+00:00,-0.0712,-1.4708,0.2718
2026-07-08 09:51:03.013136+00:00,-0.1176,0.0249,-0.5539
2026-07-08 09:51:03.013800+00:00,0.3006,-1.4215,0.2699
2026-07-08 09:51:03.063479+00:00,-0.3699,-0.8398,-0.0781
2026-07-08 09:51:03.063808+00:00,0.1884,-0.9628,0.0386
2026-07-08 09:51:03.064224+00:00,-0.2957,-1.483,0.2772
2026-07-08 09:51:03.064507+00:00,-0.1337,0.0083,-0.5549
2026-07-08 09:51:03.064947+00:00,0.3182,-1.4547,0.4104
2026-07-08 09:51:03.121949+00:00,-0.4616,-0.8852,-0.1366
2026-07-08 09:51:03.122603+00:00,0.1952,-0.9902,0.0439
2026-07-08 09:51:03.122981+00:00,-0.2957,-1.4181,0.2499
2026-07-08 09:51:03.123234+00:00,-0.124,0.0561,-0.588
2026-07-08 09:51:03.123407+00:00,0.3494,-1.5299,0.4182
2026-07-08 09:51:03.123691+00:00,-0.7603,-0.548,-0.265
2026-07-08 09:51:03.174161+00:00,0.2874,-1.1043,0.0859
2026-07-08 09:51:03.174374+00:00,-0.3411,-1.259,0.1645
2026-07-08 09:51:03.174787+00:00,-0.1005,0.0034,-0.2362
2026-07-08 09:51:03.174997+00:00,0.3411,-1.748,0.4241
2026-07-08 09:51:03.175133+00:00,-0.6539,-0.4563,-0.2533
2026-07-08 09:51:03.224284+00:00,0.3035,-1.159,0.142
2026-07-08 09:51:03.224685+00:00,-0.3802,-1.0892,0.0088
2026-07-08 09:51:03.225100+00:00,-0.0317,-0.7603,-0.0776
2026-07-08 09:51:03.225307+00:00,0.2318,-1.6987,0.4016
2026-07-08 09:51:03.225545+00:00,-0.4246,-0.0825,-0.5524
2026-07-08 09:51:03.286318+00:00,0.3494,-1.2263,0.4377
2026-07-08 09:51:03.286876+00:00,-0.3353,-0.9457,-0.06
2026-07-08 09:51:03.287135+00:00,0.0756,-1.0404,0.0361
2026-07-08 09:51:03.287298+00:00,-0.1903,-1.5758,0.3299
2026-07-08 09:51:03.287547+00:00,-0.2377,0.2152,-0.631
2026-07-08 09:51:03.287688+00:00,0.3792,-1.3786,0.5119
2026-07-08 09:51:03.335315+00:00,-0.5646,-0.6095,-0.2181
2026-07-08 09:51:03.335906+00:00,0.3357,-1.2595,0.1547
2026-07-08 09:51:03.336315+00:00,-0.3104,-1.383,0.223
2026-07-08 09:51:03.337003+00:00,-0.2821,-0.1225,-0.1845
2026-07-08 09:51:03.338397+00:00,0.386,-1.9164,0.5065
2026-07-08 09:51:03.398036+00:00,-0.734,-0.6778,-0.1269
2026-07-08 09:51:03.398478+00:00,0.2821,-1.5762,0.2923
2026-07-08 09:51:03.399136+00:00,-0.5348,-1.2478,0.0556
2026-07-08 09:51:03.399616+00:00,-0.0864,-0.7515,-0.1279
2026-07-08 09:51:03.399919+00:00,0.3626,-1.8593,0.4494
2026-07-08 09:51:03.400323+00:00,-0.6378,-0.5719,-0.242
2026-07-08 09:51:03.445908+00:00,0.3001,-1.5967,0.3231
2026-07-08 09:51:03.446443+00:00,-0.4943,-1.2522,0.0254
2026-07-08 09:51:03.446736+00:00,0.0307,-0.7188,-0.1444
2026-07-08 09:51:03.447121+00:00,-0.1508,-1.8256,0.4192
2026-07-08 09:51:03.447424+00:00,-0.5524,-0.5163,-0.265
2026-07-08 09:51:03.494241+00:00,0.2928,-1.585,0.3109
2026-07-08 09:51:03.494780+00:00,-0.5514,-1.1546,0.0537
2026-07-08 09:51:03.495105+00:00,0.1503,-0.6988,-0.1518
2026-07-08 09:51:03.495465+00:00,-0.1615,-1.8266,0.4138
2026-07-08 09:51:03.495778+00:00,-0.568,-0.5983,-0.4177
2026-07-08 09:51:03.556966+00:00,0.2952,-1.466,0.3006
2026-07-08 09:51:03.557590+00:00,-0.61,-1.0165,0.062
2026-07-08 09:51:03.557710+00:00,0.1972,-0.7213,-0.142
2026-07-08 09:51:03.557970+00:00,-0.1298,-1.8237,0.2679
2026-07-08 09:51:03.558311+00:00,-0.488,-0.6022,-0.5139
2026-07-08 09:51:03.558652+00:00,0.3479,-1.4474,0.284
2026-07-08 09:51:03.604298+00:00,-0.3767,-0.733,-0.0717
2026-07-08 09:51:03.604619+00:00,0.1757,-0.7071,-0.0444
2026-07-08 09:51:03.604931+00:00,-0.0429,-1.831,0.303
2026-07-08 09:51:03.605289+00:00,-0.4704,0.0303,-0.5553
2026-07-08 09:51:03.605502+00:00,0.2869,-1.404,0.2616
2026-07-08 09:51:03.677431+00:00,-0.3338,-0.832,-0.0459
2026-07-08 09:51:03.677940+00:00,0.1986,-0.6632,0.0356
2026-07-08 09:51:03.678539+00:00,-0.0015,-1.5406,0.304
2026-07-08 09:51:03.679067+00:00,-0.1576,-0.0381,-0.5251
2026-07-08 09:51:03.679298+00:00,0.303,-1.4162,0.2723
2026-07-08 09:51:03.679646+00:00,-0.3416,-0.791,-0.0683
2026-07-08 09:51:03.679932+00:00,0.1801,-0.9721,0.0234
2026-07-08 09:51:03.732836+00:00,-0.2611,-1.5211,0.2987
2026-07-08 09:51:03.733347+00:00,-0.1449,0.0556,-0.5788
2026-07-08 09:51:03.733514+00:00,0.3172,-1.4723,0.4021
2026-07-08 09:51:03.733660+00:00,-0.486,-0.6466,-0.1454
2026-07-08 09:51:03.734104+00:00,0.2035,-1.0199,0.0605
2026-07-08 09:51:03.734257+00:00,-0.3001,-1.3845,0.2381
2026-07-08 09:51:03.788323+00:00,-0.1259,0.0678,-0.5958
2026-07-08 09:51:03.788700+00:00,0.3499,-1.5587,0.4275
2026-07-08 09:51:03.789186+00:00,-0.7515,-0.4221,-0.2879
2026-07-08 09:51:03.789444+00:00,0.3011,-1.1312,0.1039
2026-07-08 09:51:03.789580+00:00,-0.3543,-1.1961,0.1337
2026-07-08 09:51:03.790034+00:00,-0.0927,-0.0264,-0.1854
2026-07-08 09:51:03.840194+00:00,0.3304,-1.7505,0.4246
2026-07-08 09:51:03.840718+00:00,-0.6822,-0.4402,-0.3011
2026-07-08 09:51:03.840931+00:00,0.3006,-1.1727,0.1576
2026-07-08 09:51:03.841054+00:00,-0.3499,-1.0224,-0.0137
2026-07-08 09:51:03.909679+00:00,0.0083,-0.9121,-0.0312
2026-07-08 09:51:03.910387+00:00,-0.0917,-1.6792,0.3836
2026-07-08 09:51:03.911209+00:00,-0.1737,0.141,-0.6354
2026-07-08 09:51:03.911667+00:00,0.3626,-1.2556,0.4568
2026-07-08 09:51:03.911895+00:00,-0.3465,-0.8169,-0.0805
2026-07-08 09:51:03.912179+00:00,0.3343,-1.0658,0.059
2026-07-08 09:51:03.912460+00:00,-0.2274,-1.525,0.3055
2026-07-08 09:51:03.998990+00:00,-0.204,0.1376,-0.6115
2026-07-08 09:51:04.012937+00:00,0.3777,-1.4547,0.5134
2026-07-08 09:51:04.013194+00:00,-0.6276,-0.4656,-0.265
2026-07-08 09:51:04.013296+00:00,0.325,-1.3376,0.1903
2026-07-08 09:51:04.013369+00:00,-0.3294,-1.3493,0.1957
2026-07-08 09:51:04.013463+00:00,-0.2889,-0.2113,-0.1654
2026-07-08 09:51:04.013879+00:00,0.3855,-1.8944,0.489
2026-07-08 09:51:04.014081+00:00,-0.7252,-0.6754,-0.1205
2026-07-08 09:51:04.014551+00:00,0.2811,-1.5655,0.2957
2026-07-08 09:51:04.060047+00:00,-0.5578,-1.2244,0.0532
2026-07-08 09:51:04.060392+00:00,-0.1303,-0.7398,-0.1376
2026-07-08 09:51:04.060932+00:00,-0.1142,-1.8588,0.4426
2026-07-08 09:51:04.061591+00:00,-0.6925,-0.6383,-0.1713
2026-07-08 09:51:04.062105+00:00,0.2899,-1.5758,0.3216
2026-07-08 09:51:04.062385+00:00,-0.5641,-1.2,0.0625
2026-07-08 09:51:04.062542+00:00,-0.1118,-0.6949,-0.1503
2026-07-08 09:51:04.109515+00:00,-0.1342,-1.8212,0.4192
2026-07-08 09:51:04.109877+00:00,-0.63,-0.649,-0.1332
2026-07-08 09:51:04.110413+00:00,0.2943,-1.5201,0.3035
2026-07-08 09:51:04.110698+00:00,-0.4485,-0.895,0.0127
2026-07-08 09:51:04.110908+00:00,0.1732,-0.67,-0.1659
2026-07-08 09:51:04.155218+00:00,-0.0981,-1.7968,0.4211
2026-07-08 09:51:04.155886+00:00,-0.4885,-0.55,-0.5148
2026-07-08 09:51:04.156189+00:00,0.3348,-1.4703,0.3006
2026-07-08 09:51:04.156474+00:00,-0.2884,-0.5841,-0.1269
2026-07-08 09:51:04.204055+00:00,0.1728,-0.6007,-0.225
2026-07-08 09:51:04.204541+00:00,0.0093,-1.7939,0.3518
2026-07-08 09:51:04.204958+00:00,-0.4773,0.0132,-0.5422
2026-07-08 09:51:04.205463+00:00,0.2674,-1.3762,0.2494
2026-07-08 09:51:04.205906+00:00,-0.3401,-0.795,-0.0639
2026-07-08 09:51:04.254277+00:00,0.1884,-0.6017,0.0107
2026-07-08 09:51:04.254744+00:00,0.0708,-1.8349,0.3411
2026-07-08 09:51:04.255100+00:00,-0.5114,-0.0752,-0.5002
2026-07-08 09:51:04.255558+00:00,0.2996,-1.381,0.2533
2026-07-08 09:51:04.255855+00:00,-0.3377,-0.7998,-0.0683
2026-07-08 09:51:04.306006+00:00,0.1967,-0.591,0.002
2026-07-08 09:51:04.306617+00:00,0.0825,-1.6246,0.3436
2026-07-08 09:51:04.307113+00:00,-0.202,-0.0215,-0.5353
2026-07-08 09:51:04.307422+00:00,0.3035,-1.4269,0.2733
2026-07-08 09:51:04.307889+00:00,-0.3274,-0.7906,-0.0766
2026-07-08 09:51:04.366570+00:00,0.1932,-1.0097,0.0371
2026-07-08 09:51:04.367215+00:00,-0.2479,-1.5421,0.3118
2026-07-08 09:51:04.367660+00:00,-0.161,0.0586,-0.5841
2026-07-08 09:51:04.367844+00:00,0.3289,-1.4967,0.4177
2026-07-08 09:51:04.367951+00:00,-0.5226,-0.7076,-0.1703
2026-07-08 09:51:04.368307+00:00,0.2689,-1.037,0.0708
2026-07-08 09:51:04.415649+00:00,-0.3123,-1.3601,0.2201
2026-07-08 09:51:04.416069+00:00,-0.1298,0.0561,-0.3499
2026-07-08 09:51:04.416453+00:00,0.3655,-1.5943,0.4358
2026-07-08 09:51:04.416931+00:00,-0.6256,-0.3323,-0.284
2026-07-08 09:51:04.417319+00:00,0.3099,-1.1531,0.1288
2026-07-08 09:51:04.478162+00:00,-0.385,-1.1234,0.0947
2026-07-08 09:51:04.478828+00:00,-0.0742,-0.0771,-0.1401
2026-07-08 09:51:04.479292+00:00,0.3016,-1.7373,0.4158
2026-07-08 09:51:04.479657+00:00,-0.5788,-0.3104,-0.4128
2026-07-08 09:51:04.479985+00:00,0.326,-1.2112,0.1757
2026-07-08 09:51:04.480389+00:00,-0.2791,-0.8989,-0.0727
2026-07-08 09:51:04.527964+00:00,0.059,-0.9209,-0.0307
2026-07-08 09:51:04.528501+00:00,-0.1405,-1.6704,0.3767
2026-07-08 09:51:04.529635+00:00,-0.1147,0.2489,-0.6349
2026-07-08 09:51:04.530074+00:00,0.3489,-1.3161,0.4685
2026-07-08 09:51:04.530288+00:00,-0.4231,-0.6505,-0.1547
2026-07-08 09:51:04.588789+00:00,0.3343,-1.0165,0.0371
2026-07-08 09:51:04.589398+00:00,-0.2635,-1.4991,0.284
2026-07-08 09:51:04.589906+00:00,-0.0903,-0.02,-0.307
2026-07-08 09:51:04.590307+00:00,0.3494,-1.4757,0.4704
2026-07-08 09:51:04.590632+00:00,-0.6373,-0.4885,-0.2767
2026-07-08 09:51:04.590934+00:00,0.3299,-1.2683,0.1449
2026-07-08 09:51:04.591067+00:00,-0.3177,-1.3527,0.2084
2026-07-08 09:51:04.635531+00:00,-0.2567,-0.264,-0.2708
2026-07-08 09:51:04.635913+00:00,0.345,-1.7387,0.4329
2026-07-08 09:51:04.636118+00:00,-0.5407,-0.3431,-0.2772
2026-07-08 09:51:04.636299+00:00,0.3206,-1.3254,0.182
2026-07-08 09:51:04.684990+00:00,-0.325,-1.3186,-0.1581
2026-07-08 09:51:04.685424+00:00,-0.2308,-0.487,-0.2796
2026-07-08 09:51:04.685550+00:00,0.0234,-1.6973,0.407
2026-07-08 09:51:04.685734+00:00,-0.3733,-0.489,-0.242
2026-07-08 09:51:04.685873+00:00,0.3416,-1.2229,0.3289
2026-07-08 09:51:04.735577+00:00,-0.305,-0.3972,-0.185
2026-07-08 09:51:04.736079+00:00,0.2211,-0.4377,-0.3372
2026-07-08 09:51:04.736458+00:00,0.1191,-1.6514,0.3816
2026-07-08 09:51:04.736829+00:00,-0.4416,-0.815,-0.5978
2026-07-08 09:51:04.736970+00:00,0.3626,-1.0258,0.2899
2026-07-08 09:51:04.788322+00:00,-0.2567,-0.9775,-0.0678
2026-07-08 09:51:04.788824+00:00,0.1645,-0.4241,-0.3182
2026-07-08 09:51:04.789215+00:00,0.2372,-1.6499,0.3538
2026-07-08 09:51:04.789515+00:00,-0.5671,-1.017,-0.406
2026-07-08 09:51:04.789741+00:00,0.2796,-1.3264,0.2011
2026-07-08 09:51:04.836360+00:00,-0.4773,-1.2029,0.1064
2026-07-08 09:51:04.836919+00:00,-0.0551,-0.2655,-0.3772
2026-07-08 09:51:04.837335+00:00,0.2381,-1.7114,0.406
2026-07-08 09:51:04.837623+00:00,-0.5612,-0.2996,-0.3792
2026-07-08 09:51:04.837776+00:00,0.3289,-1.3479,0.2152
2026-07-08 09:51:04.884406+00:00,-0.4831,-1.2112,0.1191
2026-07-08 09:51:04.884952+00:00,-0.0595,-0.2606,-0.0649
2026-07-08 09:51:04.885350+00:00,0.265,-1.8451,0.4197
2026-07-08 09:51:04.885607+00:00,-0.3201,-0.2469,-0.408
2026-07-08 09:51:04.885863+00:00,0.3333,-1.3649,0.2318
2026-07-08 09:51:04.932969+00:00,-0.4582,-1.2546,-0.0459
2026-07-08 09:51:04.933492+00:00,0.0249,-0.3494,-0.0224
2026-07-08 09:51:04.934110+00:00,0.2186,-1.7631,0.4104
2026-07-08 09:51:04.934426+00:00,-0.3172,-0.1098,-0.4856
2026-07-08 09:51:04.934991+00:00,0.3279,-1.4069,0.2689
2026-07-08 09:51:04.996165+00:00,-0.3489,-0.835,-0.0834
2026-07-08 09:51:04.996834+00:00,0.1879,-1.037,0.0307
2026-07-08 09:51:04.997380+00:00,-0.2025,-1.6275,0.3558
2026-07-08 09:51:04.998133+00:00,-0.2123,0.0532,-0.5802
2026-07-08 09:51:04.998491+00:00,0.3314,-1.4869,0.4231
2026-07-08 09:51:04.998697+00:00,-0.449,-0.6881,-0.1357
2026-07-08 09:51:05.045115+00:00,0.2684,-1.0531,0.0747
2026-07-08 09:51:05.045597+00:00,-0.2991,-1.3893,0.2416
2026-07-08 09:51:05.046132+00:00,-0.1571,0.0766,-0.3294
2026-07-08 09:51:05.046311+00:00,0.3831,-1.71,0.447
2026-07-08 09:51:05.046420+00:00,-0.6305,-0.3304,-0.2791
2026-07-08 09:51:05.099597+00:00,0.3065,-1.1658,0.1337
2026-07-08 09:51:05.100050+00:00,-0.4211,-1.1078,0.0893
2026-07-08 09:51:05.100476+00:00,-0.0732,-0.0922,-0.1615
2026-07-08 09:51:05.100769+00:00,0.3206,-1.7558,0.425
2026-07-08 09:51:05.101074+00:00,-0.5675,-0.3235,-0.3992
2026-07-08 09:51:05.101685+00:00,0.3206,-1.2459,0.1923
2026-07-08 09:51:05.157876+00:00,-0.2064,-0.7549,-0.0864
2026-07-08 09:51:05.158174+00:00,0.0908,-0.7769,-0.0903
2026-07-08 09:51:05.158436+00:00,-0.1508,-1.7109,0.3972
2026-07-08 09:51:05.158673+00:00,-0.1186,0.2811,-0.6344
2026-07-08 09:51:05.158894+00:00,0.3231,-1.3522,0.4026
2026-07-08 09:51:05.208093+00:00,-0.2499,-0.7281,-0.1259
2026-07-08 09:51:05.209178+00:00,0.3304,-0.8086,-0.0683
2026-07-08 09:51:05.210694+00:00,-0.2176,-1.6285,0.3528
2026-07-08 09:51:05.214550+00:00,-0.0264,0.1,-0.3704
2026-07-08 09:51:05.216067+00:00,0.3084,-1.7031,0.3758
2026-07-08 09:51:05.272406+00:00,-0.4309,-0.6608,-0.1352
2026-07-08 09:51:05.272751+00:00,0.3733,-0.8525,-0.0478
2026-07-08 09:51:05.273139+00:00,-0.243,-1.5831,-0.0517
2026-07-08 09:51:05.273376+00:00,0.0156,0.0351,-0.3509
2026-07-08 09:51:05.273674+00:00,0.2874,-1.5777,0.3362
2026-07-08 09:51:05.274010+00:00,-0.4294,-0.7144,-0.1161
2026-07-08 09:51:05.274367+00:00,0.3514,-0.8233,-0.0747
2026-07-08 09:51:05.331745+00:00,-0.2274,-1.6338,0.0664
2026-07-08 09:51:05.332119+00:00,-0.0268,-0.3304,-0.2972
2026-07-08 09:51:05.332563+00:00,0.3196,-1.5211,0.303
2026-07-08 09:51:05.332967+00:00,-0.5817,-0.8857,-0.059
2026-07-08 09:51:05.333243+00:00,0.2713,-0.773,0.2611
2026-07-08 09:51:05.333496+00:00,-0.1854,-1.2107,0.1288
2026-07-08 09:51:05.394462+00:00,-0.2006,-0.385,-0.3304
2026-07-08 09:51:05.395003+00:00,0.3377,-1.4845,0.2874
2026-07-08 09:51:05.395263+00:00,-0.6061,-1.1434,-0.1884
2026-07-08 09:51:05.395482+00:00,0.1825,-1.24,0.161
2026-07-08 09:51:05.395672+00:00,-0.2582,-1.2688,0.1537
2026-07-08 09:51:05.395926+00:00,-0.1547,-0.1113,-0.5168
2026-07-08 09:51:05.466027+00:00,0.3187,-1.5128,0.4172
2026-07-08 09:51:05.466408+00:00,-0.5226,-1.0912,-0.182
2026-07-08 09:51:05.466879+00:00,0.1527,-1.2,0.1332
2026-07-08 09:51:05.467172+00:00,-0.3026,-1.3483,0.1957
2026-07-08 09:51:05.467572+00:00,-0.1601,-0.0386,-0.5431
2026-07-08 09:51:05.468239+00:00,0.3231,-1.5338,0.467
2026-07-08 09:51:05.523507+00:00,-0.5266,-0.5905,-0.2147
2026-07-08 09:51:05.524043+00:00,0.3489,-1.2459,0.1498
2026-07-08 09:51:05.524732+00:00,-0.3255,-1.3332,0.185
2026-07-08 09:51:05.525326+00:00,-0.1527,-0.0693,-0.1693
2026-07-08 09:51:05.525675+00:00,0.3479,-1.8764,0.4792
2026-07-08 09:51:05.526126+00:00,-0.4738,-0.5002,-0.2723
2026-07-08 09:51:05.526398+00:00,0.3558,-1.3161,0.1854
2026-07-08 09:51:05.585263+00:00,-0.387,-1.2908,0.0551
2026-07-08 09:51:05.585726+00:00,-0.0996,-0.9467,-0.0771
2026-07-08 09:51:05.586035+00:00,0.3201,-1.8681,0.4699
2026-07-08 09:51:05.586642+00:00,-0.4236,-0.2562,-0.4124
2026-07-08 09:51:05.587530+00:00,0.3372,-1.3879,0.2455
2026-07-08 09:51:05.588342+00:00,-0.4494,-1.1727,-0.0464
2026-07-08 09:51:05.632430+00:00,0.0742,-1.0228,0.0161
2026-07-08 09:51:05.632766+00:00,-0.1552,-1.7348,0.4055
2026-07-08 09:51:05.633073+00:00,-0.2752,0.0156,-0.568
2026-07-08 09:51:05.633328+00:00,0.3343,-1.4679,0.4163
2026-07-08 09:51:05.633691+00:00,-0.347,-0.7432,-0.0952
2026-07-08 09:51:05.695972+00:00,0.2655,-1.0638,0.0727
2026-07-08 09:51:05.696608+00:00,-0.2621,-1.4664,0.2865
2026-07-08 09:51:05.696736+00:00,-0.1488,0.0556,-0.3884
2026-07-08 09:51:05.697040+00:00,0.3684,-1.7226,0.4397
2026-07-08 09:51:05.697312+00:00,-0.4504,-0.2747,-0.2996
2026-07-08 09:51:05.697590+00:00,0.304,-1.1585,0.1205
2026-07-08 09:51:05.758655+00:00,-0.4265,-1.1502,0.0551
2026-07-08 09:51:05.759110+00:00,-0.161,-0.5597,-0.242
2026-07-08 09:51:05.759560+00:00,0.3645,-1.7617,0.4187
2026-07-08 09:51:05.760159+00:00,-0.7676,-0.6261,-0.2123
2026-07-08 09:51:05.760785+00:00,0.2933,-1.3396,0.2123
2026-07-08 09:51:05.761387+00:00,-0.4026,-1.1307,0.0146
2026-07-08 09:51:05.835539+00:00,0.0864,-0.6754,-0.1566
2026-07-08 09:51:05.836083+00:00,-0.1147,-1.7978,0.4202
2026-07-08 09:51:05.836440+00:00,-0.3523,-0.266,-0.4109
2026-07-08 09:51:05.836727+00:00,0.2948,-1.4689,0.3431
2026-07-08 09:51:05.837026+00:00,-0.3255,-0.9814,-0.0298
2026-07-08 09:51:05.837266+00:00,0.1635,-0.6671,-0.1366
2026-07-08 09:51:05.837687+00:00,-0.1425,-1.7822,0.407
2026-07-08 09:51:05.838112+00:00,-0.2621,-0.1884,-0.3499
2026-07-08 09:51:05.907634+00:00,0.2743,-1.4689,0.3206
2026-07-08 09:51:05.907963+00:00,-0.7276,-1.0394,0.0005
2026-07-08 09:51:05.908261+00:00,0.1635,-0.6476,-0.1493
2026-07-08 09:51:05.908521+00:00,-0.1518,-1.789,0.1645
2026-07-08 09:51:05.908719+00:00,-0.4714,-0.3621,-0.3728
2026-07-08 09:51:05.909055+00:00,0.2621,-1.4552,0.2948
2026-07-08 09:51:05.909346+00:00,-0.6168,-1.161,0.0625
2026-07-08 09:51:05.957873+00:00,0.1254,-0.6539,-0.1703
2026-07-08 09:51:05.958383+00:00,-0.1249,-1.7539,0.2279
2026-07-08 09:51:05.958768+00:00,-0.672,-0.1308,-0.4797
2026-07-08 09:51:05.959184+00:00,0.2796,-1.3996,0.2586
2026-07-08 09:51:05.959425+00:00,-0.4099,-1.0565,0.0425
2026-07-08 09:51:05.959772+00:00,0.1025,-0.6993,0.0293
2026-07-08 09:51:06.006413+00:00,-0.06,-1.4952,0.2669
2026-07-08 09:51:06.006997+00:00,-0.0747,0.0898,-0.5236
2026-07-08 09:51:06.007479+00:00,0.2933,-1.2703,0.2045
2026-07-08 09:51:06.007785+00:00,-0.3689,-1.0438,-0.0181
2026-07-08 09:51:06.071957+00:00,0.101,-0.9828,0.0215
2026-07-08 09:51:06.072346+00:00,-0.1947,-1.5562,0.2948
2026-07-08 09:51:06.072502+00:00,0.0239,0.0927,-0.5505
2026-07-08 09:51:06.072684+00:00,0.3182,-1.259,0.3982
2026-07-08 09:51:06.072850+00:00,-0.386,-1.077,-0.0512
2026-07-08 09:51:06.073105+00:00,0.1054,-1.0043,0.0288
2026-07-08 09:51:06.073389+00:00,-0.2064,-1.567,0.3006
2026-07-08 09:51:06.125902+00:00,-0.0327,0.1322,-0.5602
2026-07-08 09:51:06.126380+00:00,0.3192,-1.3098,0.426
2026-07-08 09:51:06.126549+00:00,-0.4036,-0.8516,-0.0698
2026-07-08 09:51:06.126858+00:00,0.3118,-1.0512,0.059
2026-07-08 09:51:06.127206+00:00,-0.243,-1.5079,0.2782
2026-07-08 09:51:06.174185+00:00,-0.2167,0.1103,-0.3348
2026-07-08 09:51:06.174829+00:00,0.3601,-1.8661,0.4758
2026-07-08 09:51:06.175254+00:00,-0.5363,-0.6983,-0.161
2026-07-08 09:51:06.175562+00:00,0.3543,-1.178,0.1259
2026-07-08 09:51:06.175956+00:00,-0.304,-1.3864,-0.0342
2026-07-08 09:51:06.235073+00:00,-0.1815,-0.7369,-0.1908
2026-07-08 09:51:06.237446+00:00,-0.0137,-1.9174,0.5041
2026-07-08 09:51:06.239192+00:00,-0.5022,-0.4368,-0.3128
2026-07-08 09:51:06.239572+00:00,0.3567,-1.364,0.3362
2026-07-08 09:51:06.239923+00:00,-0.4709,-1.0087,0.0273
2026-07-08 09:51:06.240471+00:00,-0.0908,-0.9765,-0.0303
2026-07-08 09:51:06.288097+00:00,-0.1127,-1.8373,0.4631
2026-07-08 09:51:06.288619+00:00,-0.3782,-0.081,-0.5314
2026-07-08 09:51:06.288886+00:00,0.3235,-1.4655,0.3963
2026-07-08 09:51:06.289193+00:00,-0.2611,-0.8096,-0.0834
2026-07-08 09:51:06.289416+00:00,0.2347,-1.0565,0.0498
2026-07-08 09:51:06.338640+00:00,-0.2196,-1.5909,0.3504
2026-07-08 09:51:06.339343+00:00,-0.1035,0.0537,-0.4748
2026-07-08 09:51:06.339766+00:00,0.3396,-1.6265,0.4148
2026-07-08 09:51:06.340101+00:00,-0.3367,-0.5514,-0.2674
2026-07-08 09:51:06.340507+00:00,0.3128,-1.0619,0.0678
2026-07-08 09:51:06.405287+00:00,-0.327,-1.2888,-0.1298
2026-07-08 09:51:06.407642+00:00,-0.2674,-0.3738,-0.3484
2026-07-08 09:51:06.409681+00:00,0.1069,-1.6836,0.4109
2026-07-08 09:51:06.409929+00:00,-0.6334,-0.3884,-0.2069
2026-07-08 09:51:06.410104+00:00,0.2948,-1.2869,0.3079
2026-07-08 09:51:06.410341+00:00,-0.4353,-1.1439,0.0264
2026-07-08 09:51:06.410603+00:00,-0.2342,-0.5671,-0.2201
2026-07-08 09:51:06.473305+00:00,-0.0659,-1.7495,0.4148
2026-07-08 09:51:06.473663+00:00,-0.7632,-0.672,-0.0937
2026-07-08 09:51:06.473831+00:00,0.2816,-1.401,0.3123
2026-07-08 09:51:06.473916+00:00,-0.4719,-1.0365,0.0634
2026-07-08 09:51:06.474185+00:00,0.0952,-0.5797,-0.2064
2026-07-08 09:51:06.474363+00:00,-0.0805,-1.7505,0.4026
2026-07-08 09:51:06.526460+00:00,-0.7291,-0.5988,-0.508
2026-07-08 09:51:06.526838+00:00,0.2782,-1.466,0.3006
2026-07-08 09:51:06.527416+00:00,-0.408,-0.8984,-0.0083
2026-07-08 09:51:06.527588+00:00,0.0605,-0.5192,-0.2308
2026-07-08 09:51:06.528033+00:00,-0.0488,-1.6929,0.3187
2026-07-08 09:51:06.528369+00:00,-0.5793,0.0112,-0.5266
2026-07-08 09:51:06.575293+00:00,0.2962,-1.3947,0.2767
2026-07-08 09:51:06.575615+00:00,-0.2591,-0.8247,-0.0708
2026-07-08 09:51:06.575935+00:00,0.0542,-0.4538,-0.0678
2026-07-08 09:51:06.576238+00:00,0.021,-1.6187,0.3309
2026-07-08 09:51:06.576350+00:00,-0.2167,0.1342,-0.5632
2026-07-08 09:51:06.637857+00:00,0.2596,-1.2556,0.2074
2026-07-08 09:51:06.638674+00:00,-0.3099,-0.9008,-0.0425
2026-07-08 09:51:06.638959+00:00,0.0351,-0.407,-0.0171
2026-07-08 09:51:06.639179+00:00,0.0639,-1.6314,0.3328
2026-07-08 09:51:06.639387+00:00,-0.3216,-0.1737,-0.4821
2026-07-08 09:51:06.639594+00:00,0.2987,-1.1688,0.1405
2026-07-08 09:51:06.686369+00:00,-0.3587,-1.0741,0.0034
2026-07-08 09:51:06.686782+00:00,0.0264,-0.9013,-0.0268
2026-07-08 09:51:06.687387+00:00,-0.1322,-1.6597,0.3509
2026-07-08 09:51:06.688093+00:00,-0.3138,-0.1103,-0.5231
2026-07-08 09:51:06.688353+00:00,0.3099,-1.222,0.3699
2026-07-08 09:51:06.740473+00:00,-0.3587,-1.0087,-0.0132
2026-07-08 09:51:06.740813+00:00,0.183,-0.9389,-0.0054
2026-07-08 09:51:06.741138+00:00,-0.1493,-1.6289,0.3377
2026-07-08 09:51:06.741522+00:00,-0.0625,0.1142,-0.4714
2026-07-08 09:51:06.741908+00:00,0.3401,-1.2566,0.4226
2026-07-08 09:51:06.742097+00:00,-0.3831,-0.8994,-0.0503
2026-07-08 09:51:06.789412+00:00,0.2791,-1.0307,0.0454
2026-07-08 09:51:06.789694+00:00,-0.2147,-1.5323,0.2967
2026-07-08 09:51:06.790074+00:00,-0.2118,0.1581,-0.3626
2026-07-08 09:51:06.790341+00:00,0.3743,-1.8842,0.4939
2026-07-08 09:51:06.790639+00:00,-0.5407,-0.6954,-0.164
2026-07-08 09:51:06.839043+00:00,0.3509,-1.1966,0.1391
2026-07-08 09:51:06.839488+00:00,-0.3123,-1.3601,-0.0273
2026-07-08 09:51:06.839871+00:00,-0.1688,-0.7271,-0.1664
2026-07-08 09:51:06.840232+00:00,-0.0322,-1.9374,0.5124
2026-07-08 09:51:06.840622+00:00,-0.5275,-0.3997,-0.3372
2026-07-08 09:51:06.901674+00:00,0.345,-1.4342,0.3587
2026-07-08 09:51:06.902090+00:00,-0.4246,-1.0019,-0.022
2026-07-08 09:51:06.902414+00:00,0.1649,-1.0082,0.0039
2026-07-08 09:51:06.902732+00:00,-0.1327,-1.8017,0.4465
2026-07-08 09:51:06.903005+00:00,-0.2669,0.0459,-0.6066
2026-07-08 09:51:06.903296+00:00,0.3182,-1.5543,0.387
2026-07-08 09:51:06.964653+00:00,-0.2938,-0.7213,-0.101
2026-07-08 09:51:06.965053+00:00,0.2567,-0.9789,0.0215
2026-07-08 09:51:06.965445+00:00,-0.2445,-1.5255,0.3231
2026-07-08 09:51:06.965647+00:00,0.0005,-0.0371,-0.4612
2026-07-08 09:51:06.965993+00:00,0.3323,-1.6065,0.4011
2026-07-08 09:51:06.966223+00:00,-0.3631,-0.4968,-0.2718
2026-07-08 09:51:07.012020+00:00,0.3318,-1.0668,0.063
2026-07-08 09:51:07.012267+00:00,-0.3172,-1.3205,-0.1591
2026-07-08 09:51:07.012545+00:00,-0.2186,-0.3728,-0.3401
2026-07-08 09:51:07.013042+00:00,0.041,-1.6729,0.405
2026-07-08 09:51:07.013410+00:00,-0.6076,-0.2523,-0.3011
2026-07-08 09:51:07.061097+00:00,0.3104,-1.2327,0.3162
2026-07-08 09:51:07.061854+00:00,-0.327,-0.7486,-0.1127
2026-07-08 09:51:07.062170+00:00,-0.2757,-0.4499,-0.2811
2026-07-08 09:51:07.062494+00:00,-0.0059,-1.6753,0.3948
2026-07-08 09:51:07.063015+00:00,-0.5861,-0.2425,-0.5485
2026-07-08 09:51:07.120642+00:00,0.3055,-1.2239,0.3099
2026-07-08 09:51:07.121082+00:00,-0.3294,-0.67,-0.1142
2026-07-08 09:51:07.121634+00:00,0.0659,-0.4002,-0.3011
2026-07-08 09:51:07.121944+00:00,0.0264,-1.6289,0.368
2026-07-08 09:51:07.122209+00:00,-0.3348,-0.427,-0.5749
2026-07-08 09:51:07.122391+00:00,0.3318,-1.4254,0.2928
2026-07-08 09:51:07.175051+00:00,-0.2006,-0.7042,-0.1318
2026-07-08 09:51:07.175455+00:00,0.0737,-0.3562,-0.3538
2026-07-08 09:51:07.176189+00:00,0.0917,-1.5655,0.3655
2026-07-08 09:51:07.176574+00:00,-0.2704,-0.0337,-0.5129
2026-07-08 09:51:07.177192+00:00,0.2484,-1.3308,0.2284
2026-07-08 09:51:07.222423+00:00,-0.3099,-0.8857,-0.0551
2026-07-08 09:51:07.222782+00:00,0.0229,-0.3016,-0.062
2026-07-08 09:51:07.223040+00:00,0.1376,-1.729,0.3558
2026-07-08 09:51:07.223299+00:00,-0.4285,-0.3738,-0.344
2026-07-08 09:51:07.223513+00:00,0.2801,-1.1741,0.1352
2026-07-08 09:51:07.285614+00:00,-0.3475,-1.0277,0.0176
2026-07-08 09:51:07.286676+00:00,-0.0229,-0.2298,-0.0673
2026-07-08 09:51:07.287024+00:00,0.1747,-1.688,0.367
2026-07-08 09:51:07.287392+00:00,-0.4924,-0.3802,-0.3523
2026-07-08 09:51:07.287613+00:00,0.2933,-1.1551,0.1347
2026-07-08 09:51:07.287993+00:00,-0.3577,-1.0936,0.0146
2026-07-08 09:51:07.332536+00:00,0.0034,-0.8545,-0.061
2026-07-08 09:51:07.332962+00:00,-0.1005,-1.6919,0.3753
2026-07-08 09:51:07.333262+00:00,-0.4114,-0.1986,-0.4704
2026-07-08 09:51:07.333531+00:00,0.3162,-1.22,0.364
2026-07-08 09:51:07.333786+00:00,-0.3562,-1.0097,-0.0156
2026-07-08 09:51:07.395393+00:00,0.2181,-0.9565,0.0
2026-07-08 09:51:07.395722+00:00,-0.1444,-1.6304,0.3455
2026-07-08 09:51:07.396346+00:00,-0.0473,0.1659,-0.4358
2026-07-08 09:51:07.396831+00:00,0.3494,-1.7685,0.4446
2026-07-08 09:51:07.397090+00:00,-0.5246,-0.8584,-0.0712
2026-07-08 09:51:07.397595+00:00,0.307,-1.079,0.0708
2026-07-08 09:51:07.444126+00:00,-0.2381,-1.4884,-0.0605
2026-07-08 09:51:07.444536+00:00,-0.2464,0.1308,-0.3211
2026-07-08 09:51:07.444823+00:00,0.386,-1.9227,0.5168
2026-07-08 09:51:07.445132+00:00,-0.5466,-0.5807,-0.2352
2026-07-08 09:51:07.445398+00:00,0.3631,-1.3166,0.1854
2026-07-08 09:51:07.490882+00:00,-0.3982,-1.3044,0.0561
2026-07-08 09:51:07.491558+00:00,-0.1381,-0.8974,-0.0795
2026-07-08 09:51:07.491726+00:00,-0.0913,-1.9091,0.4992
2026-07-08 09:51:07.491819+00:00,-0.4695,-0.2708,-0.4304
2026-07-08 09:51:07.491891+00:00,0.3221,-1.5299,0.3762
2026-07-08 09:51:07.541220+00:00,-0.2855,-0.8457,-0.0781
2026-07-08 09:51:07.541781+00:00,0.1986,-1.0307,0.0254
2026-07-08 09:51:07.542182+00:00,-0.1684,-1.7007,0.4036
2026-07-08 09:51:07.542480+00:00,-0.0888,0.1313,-0.4548
2026-07-08 09:51:07.542727+00:00,0.3235,-1.5675,0.386
2026-07-08 09:51:07.603693+00:00,-0.4963,-0.6222,-0.1513
2026-07-08 09:51:07.603943+00:00,0.3211,-0.913,-0.0054
2026-07-08 09:51:07.604490+00:00,-0.2708,-1.4699,-0.2137
2026-07-08 09:51:07.605019+00:00,-0.021,-0.1235,-0.429
2026-07-08 09:51:07.605194+00:00,0.3323,-1.628,0.3875
2026-07-08 09:51:07.605289+00:00,-0.3919,-0.4841,-0.2894
2026-07-08 09:51:07.666496+00:00,0.3406,-1.0838,0.0673
2026-07-08 09:51:07.667237+00:00,-0.3196,-1.3469,-0.1606
2026-07-08 09:51:07.667507+00:00,-0.1649,-0.365,-0.3509
2026-07-08 09:51:07.667723+00:00,0.063,-1.6426,0.3841
2026-07-08 09:51:07.668017+00:00,-0.4002,-0.3841,-0.3148
2026-07-08 09:51:07.668237+00:00,0.3279,-1.1326,0.3196
2026-07-08 09:51:07.731975+00:00,-0.3226,-0.6032,-0.1362
2026-07-08 09:51:07.732350+00:00,0.0913,-0.365,-0.3421
2026-07-08 09:51:07.732718+00:00,0.0644,-1.607,0.3636
2026-07-08 09:51:07.733031+00:00,-0.3094,-0.5348,-0.5954
2026-07-08 09:51:07.733220+00:00,0.347,-1.3747,0.3035
2026-07-08 09:51:07.733410+00:00,-0.305,-0.6808,-0.1464
2026-07-08 09:51:07.733799+00:00,0.0898,-0.3265,-0.3782
2026-07-08 09:51:07.805003+00:00,0.123,-1.546,0.4514
2026-07-08 09:51:07.805653+00:00,-0.2952,-0.5817,-0.4836
2026-07-08 09:51:07.806035+00:00,0.3333,-1.3859,0.2489
2026-07-08 09:51:07.806365+00:00,-0.3362,-0.9277,-0.0429
2026-07-08 09:51:07.806709+00:00,0.0356,-0.2933,-0.4094
2026-07-08 09:51:07.806959+00:00,0.1757,-1.5509,0.365
2026-07-08 09:51:07.807325+00:00,-0.4372,-0.4939,-0.2674
2026-07-08 09:51:07.897195+00:00,0.2606,-1.2132,0.1459
2026-07-08 09:51:07.897623+00:00,-0.3475,-0.998,0.0083
2026-07-08 09:51:07.898238+00:00,-0.042,-0.1913,-0.0742
2026-07-08 09:51:07.898498+00:00,0.2079,-1.6982,0.3719
2026-07-08 09:51:07.898645+00:00,-0.5612,-0.4573,-0.2718
2026-07-08 09:51:07.898819+00:00,0.2865,-1.1175,0.1152
2026-07-08 09:51:07.898947+00:00,-0.3499,-1.12,0.0727
2026-07-08 09:51:07.899487+00:00,-0.04,-0.1708,-0.1088
2026-07-08 09:51:07.900068+00:00,0.2274,-1.7163,0.3924
2026-07-08 09:51:07.965190+00:00,-0.5436,-0.4036,-0.3353
2026-07-08 09:51:07.965768+00:00,0.2967,-1.1854,0.1484
2026-07-08 09:51:07.966372+00:00,-0.3577,-1.0521,0.0073
2026-07-08 09:51:07.966838+00:00,0.0063,-0.8882,-0.0381
2026-07-08 09:51:07.967237+00:00,-0.0991,-1.6846,0.3719
2026-07-08 09:51:07.967693+00:00,-0.3465,-0.0742,-0.5485
2026-07-08 09:51:07.968650+00:00,0.3299,-1.2215,0.3875
2026-07-08 09:51:08.025426+00:00,-0.3631,-0.9721,-0.0327
2026-07-08 09:51:08.025853+00:00,0.2372,-1.0019,0.0234
2026-07-08 09:51:08.026347+00:00,-0.1664,-1.5899,0.3245
2026-07-08 09:51:08.026653+00:00,-0.1142,0.2011,-0.405
2026-07-08 09:51:08.027301+00:00,0.3709,-1.8598,0.4885
2026-07-08 09:51:08.027866+00:00,-0.5988,-0.7486,-0.1269
2026-07-08 09:51:08.089392+00:00,0.3406,-1.1673,0.1235
2026-07-08 09:51:08.089981+00:00,-0.2987,-1.403,-0.019
2026-07-08 09:51:08.090418+00:00,-0.1957,0.0615,-0.2059
2026-07-08 09:51:08.090575+00:00,0.3855,-1.9574,0.5212
2026-07-08 09:51:08.090746+00:00,-0.5632,-0.4612,-0.3016
2026-07-08 09:51:08.090970+00:00,0.3484,-1.4381,0.2542
2026-07-08 09:51:08.091080+00:00,-0.4441,-1.2893,-0.0156
2026-07-08 09:51:08.141596+00:00,0.0063,-1.0087,-0.0024
2026-07-08 09:51:08.141933+00:00,-0.1215,-1.8232,0.4602
2026-07-08 09:51:08.142398+00:00,-0.2943,0.0283,-0.6139
2026-07-08 09:51:08.142937+00:00,0.3177,-1.5714,0.3841
2026-07-08 09:51:08.143259+00:00,-0.2518,-0.7232,-0.0942
2026-07-08 09:51:08.199379+00:00,0.2464,-0.9623,0.0122
2026-07-08 09:51:08.199834+00:00,-0.2318,-1.5738,0.3475
2026-07-08 09:51:08.200194+00:00,0.0049,0.0151,-0.4524
2026-07-08 09:51:08.200563+00:00,0.3235,-1.5982,0.388
2026-07-08 09:51:08.200705+00:00,-0.3372,-0.6061,-0.2572
2026-07-08 09:51:08.200796+00:00,0.3479,-1.0185,0.0342
2026-07-08 09:51:08.251108+00:00,-0.307,-1.3801,-0.1474
2026-07-08 09:51:08.251492+00:00,-0.1352,-0.3709,-0.3743
2026-07-08 09:51:08.251643+00:00,0.3265,-1.6446,0.3924
2026-07-08 09:51:08.251843+00:00,-0.425,-0.3782,-0.3133
2026-07-08 09:51:08.252064+00:00,0.3314,-1.1463,0.1054
2026-07-08 09:51:08.305800+00:00,-0.3231,-1.321,-0.141
2026-07-08 09:51:08.306275+00:00,-0.1903,-0.3831,-0.3289
2026-07-08 09:51:08.306461+00:00,0.0449,-1.6299,0.3787
2026-07-08 09:51:08.306659+00:00,-0.3753,-0.3958,-0.3152
2026-07-08 09:51:08.306849+00:00,0.3289,-1.098,0.3109
2026-07-08 09:51:08.356388+00:00,-0.3138,-0.6359,-0.1381
2026-07-08 09:51:08.356827+00:00,0.0864,-0.3421,-0.3523
2026-07-08 09:51:08.357070+00:00,0.0839,-1.5758,0.347
2026-07-08 09:51:08.357605+00:00,-0.2133,-0.5031,-0.5783
2026-07-08 09:51:08.358138+00:00,0.3528,-1.3957,0.2811
2026-07-08 09:51:08.421128+00:00,-0.1645,-0.8233,-0.102
2026-07-08 09:51:08.421639+00:00,0.0586,-0.3192,-0.3919
2026-07-08 09:51:08.421949+00:00,0.1454,-1.547,0.3167
2026-07-08 09:51:08.422284+00:00,-0.3518,-0.7013,-0.3528
2026-07-08 09:51:08.422633+00:00,0.286,-1.2927,0.1879
2026-07-08 09:51:08.422837+00:00,-0.3455,-0.9438,-0.0249
2026-07-08 09:51:08.489249+00:00,-0.0176,-0.2503,-0.4241
2026-07-08 09:51:08.490271+00:00,0.1757,-1.6177,0.365
2026-07-08 09:51:08.490505+00:00,-0.4543,-0.4494,-0.2948
2026-07-08 09:51:08.491376+00:00,0.2821,-1.1258,0.1161
2026-07-08 09:51:08.492969+00:00,-0.3484,-1.0917,0.0547
2026-07-08 09:51:08.493211+00:00,-0.0337,-0.1884,-0.0947
2026-07-08 09:51:08.493476+00:00,0.2094,-1.707,0.3787
2026-07-08 09:51:08.546503+00:00,-0.5295,-0.4104,-0.3294
2026-07-08 09:51:08.546877+00:00,0.2962,-1.1649,0.1366
2026-07-08 09:51:08.547208+00:00,-0.3582,-1.0765,0.0127
2026-07-08 09:51:08.547501+00:00,0.0015,-0.8462,-0.0527
2026-07-08 09:51:08.547760+00:00,-0.0791,-1.689,0.3787
2026-07-08 09:51:08.547995+00:00,-0.3977,-0.1664,-0.4943
2026-07-08 09:51:08.610894+00:00,0.3245,-1.2156,0.2987
2026-07-08 09:51:08.611340+00:00,-0.3626,-1.0258,-0.0273
2026-07-08 09:51:08.611681+00:00,0.0688,-0.9765,0.0073
2026-07-08 09:51:08.611997+00:00,-0.1576,-1.6163,0.3382
2026-07-08 09:51:08.612365+00:00,-0.0527,0.1869,-0.6154
2026-07-08 09:51:08.612490+00:00,0.3592,-1.2961,0.4695
2026-07-08 09:51:08.612714+00:00,-0.4324,-0.8023,-0.0991
2026-07-08 09:51:08.676852+00:00,0.3255,-1.118,0.0966
2026-07-08 09:51:08.677426+00:00,-0.2699,-1.4498,0.2542
2026-07-08 09:51:08.677632+00:00,-0.2225,0.1054,-0.2669
2026-07-08 09:51:08.677769+00:00,0.3948,-1.9413,0.5241
2026-07-08 09:51:08.677902+00:00,-0.5671,-0.5275,-0.2655
2026-07-08 09:51:08.678085+00:00,0.3572,-1.3996,0.2201
2026-07-08 09:51:08.738140+00:00,-0.4856,-1.2698,0.0312
2026-07-08 09:51:08.738776+00:00,-0.101,-0.9623,-0.0425
2026-07-08 09:51:08.739087+00:00,-0.0556,-1.8749,0.4831
2026-07-08 09:51:08.739356+00:00,-0.4104,-0.1523,-0.5163
2026-07-08 09:51:08.739511+00:00,0.3143,-1.5743,0.4856
2026-07-08 09:51:08.739759+00:00,-0.1928,-0.5846,-0.0859
2026-07-08 09:51:08.789743+00:00,0.1854,-0.9848,0.0117
2026-07-08 09:51:08.789987+00:00,-0.1903,-1.6616,0.387
2026-07-08 09:51:08.790117+00:00,-0.0361,0.121,-0.5856
2026-07-08 09:51:08.790379+00:00,0.3133,-1.5489,0.3831
2026-07-08 09:51:08.790615+00:00,-0.5178,-0.5934,-0.1693
2026-07-08 09:51:08.790706+00:00,0.3416,-0.8999,-0.021
2026-07-08 09:51:08.839447+00:00,-0.2708,-1.4728,0.2845
2026-07-08 09:51:08.839861+00:00,0.0024,-0.1308,-0.4236
2026-07-08 09:51:08.840184+00:00,0.3148,-1.6075,0.3723
2026-07-08 09:51:08.840751+00:00,-0.3235,-0.5983,-0.2743
2026-07-08 09:51:08.840946+00:00,0.3582,-1.0067,0.0254
2026-07-08 09:51:08.903373+00:00,-0.3055,-1.404,-0.1674
2026-07-08 09:51:08.903894+00:00,-0.0381,-0.3675,-0.388
2026-07-08 09:51:08.904181+00:00,0.0512,-1.5992,0.3626
2026-07-08 09:51:08.904436+00:00,-0.2811,-0.5368,-0.2655
2026-07-08 09:51:08.904629+00:00,0.3582,-0.957,0.2542
2026-07-08 09:51:08.904829+00:00,-0.2923,-1.4337,-0.1601
2026-07-08 09:51:08.964119+00:00,0.0376,-0.306,-0.3982
2026-07-08 09:51:08.964645+00:00,0.1537,-1.5431,0.326
2026-07-08 09:51:08.964956+00:00,-0.3045,-0.5802,-0.163
2026-07-08 09:51:08.965135+00:00,0.3499,-0.8008,0.2752
2026-07-08 09:51:08.965238+00:00,-0.2621,-1.0072,-0.0224
2026-07-08 09:51:08.965316+00:00,0.0732,-0.2757,-0.3967
2026-07-08 09:51:09.028836+00:00,0.2123,-1.4923,0.2913
2026-07-08 09:51:09.042908+00:00,-0.4314,-0.7637,-0.203
2026-07-08 09:51:09.043105+00:00,0.245,-1.3269,0.1864
2026-07-08 09:51:09.043191+00:00,-0.3953,-0.9755,0.0044
2026-07-08 09:51:09.043269+00:00,-0.0342,-0.2054,-0.4602
2026-07-08 09:51:09.043337+00:00,0.2416,-1.5484,0.3782
2026-07-08 09:51:09.043533+00:00,-0.4738,-0.547,-0.1737
2026-07-08 09:51:09.074885+00:00,0.2284,-1.1063,0.1025
2026-07-08 09:51:09.075242+00:00,-0.3479,-1.1019,0.0742
2026-07-08 09:51:09.075605+00:00,-0.0571,-0.1049,-0.1318
2026-07-08 09:51:09.075844+00:00,0.2752,-1.5826,0.3914
2026-07-08 09:51:09.143491+00:00,-0.4914,-0.4382,-0.223
2026-07-08 09:51:09.144170+00:00,0.2918,-1.0985,0.1108
2026-07-08 09:51:09.144450+00:00,-0.3518,-1.1536,0.0971
2026-07-08 09:51:09.144721+00:00,-0.063,-0.1069,-0.1571
2026-07-08 09:51:09.145053+00:00,0.2772,-1.7285,0.4046
2026-07-08 09:51:09.145283+00:00,-0.6266,-0.4797,-0.2425
2026-07-08 09:51:09.145534+00:00,0.2884,-1.1488,0.1366
2026-07-08 09:51:09.204790+00:00,-0.3655,-1.0848,0.0181
2026-07-08 09:51:09.205215+00:00,-0.0332,-0.8296,-0.0839
2026-07-08 09:51:09.205568+00:00,-0.0825,-1.708,0.3924
2026-07-08 09:51:09.205912+00:00,-0.4875,-0.2542,-0.4407
2026-07-08 09:51:09.206228+00:00,0.3245,-1.2005,0.367
2026-07-08 09:51:09.206462+00:00,-0.3558,-0.8916,-0.0298
2026-07-08 09:51:09.254650+00:00,0.1874,-0.9667,0.0034
2026-07-08 09:51:09.255129+00:00,-0.143,-1.6314,0.3489
2026-07-08 09:51:09.255535+00:00,-0.063,0.2025,-0.3767
2026-07-08 09:51:09.255937+00:00,0.3631,-1.2952,0.4743
2026-07-08 09:51:09.256267+00:00,-0.428,-0.7993,-0.1
2026-07-08 09:51:09.302933+00:00,0.3226,-1.1229,0.0986
2026-07-08 09:51:09.303424+00:00,-0.2699,-1.4459,0.2567
2026-07-08 09:51:09.303707+00:00,-0.2108,0.1015,-0.2547
2026-07-08 09:51:09.304002+00:00,0.3914,-1.9476,0.5241
2026-07-08 09:51:09.304157+00:00,-0.5939,-0.5461,-0.2508
2026-07-08 09:51:09.367898+00:00,0.347,-1.4513,0.245
2026-07-08 09:51:09.369633+00:00,-0.5046,-1.281,0.0298
2026-07-08 09:51:09.370786+00:00,-0.0932,-0.9457,-0.0508
2026-07-08 09:51:09.371627+00:00,-0.1054,-1.8886,0.4895
2026-07-08 09:51:09.372301+00:00,-0.4143,-0.2245,-0.4714
2026-07-08 09:51:09.373651+00:00,0.3055,-1.6119,0.3704
2026-07-08 09:51:09.439731+00:00,-0.202,-0.7891,-0.0756
2026-07-08 09:51:09.440189+00:00,0.1903,-0.9008,-0.0307
2026-07-08 09:51:09.440609+00:00,-0.1718,-1.7412,0.4114
2026-07-08 09:51:09.440945+00:00,-0.0913,0.1786,-0.6071
2026-07-08 09:51:09.441266+00:00,0.2982,-1.5396,0.3509
2026-07-08 09:51:09.441630+00:00,-0.2684,-0.6964,-0.1259
2026-07-08 09:51:09.441938+00:00,0.2972,-0.7666,-0.0756
2026-07-08 09:51:09.493136+00:00,-0.2235,-1.6216,0.3509
2026-07-08 09:51:09.493484+00:00,0.0054,0.0371,-0.4011
2026-07-08 09:51:09.494308+00:00,0.285,-1.5177,0.326
2026-07-08 09:51:09.494616+00:00,-0.3928,-0.6549,-0.1381
2026-07-08 09:51:09.495345+00:00,0.3333,-0.754,-0.0903
2026-07-08 09:51:09.496031+00:00,-0.2401,-1.6016,-0.0015
2026-07-08 09:51:09.557787+00:00,0.0078,-0.2674,-0.3875
2026-07-08 09:51:09.558734+00:00,0.2669,-1.4811,0.2972
2026-07-08 09:51:09.559131+00:00,-0.4031,-0.7159,-0.0986
2026-07-08 09:51:09.559532+00:00,0.2806,-0.713,0.2513
2026-07-08 09:51:09.560071+00:00,-0.2259,-1.0311,0.0268
2026-07-08 09:51:09.560349+00:00,0.0815,-0.2694,-0.3943
2026-07-08 09:51:09.605480+00:00,0.2733,-1.4547,0.2845
2026-07-08 09:51:09.605884+00:00,-0.5646,-0.8086,-0.0434
2026-07-08 09:51:09.606248+00:00,0.2015,-0.7793,0.1752
2026-07-08 09:51:09.606516+00:00,-0.2157,-1.0199,0.0264
2026-07-08 09:51:09.606815+00:00,-0.0659,-0.1664,-0.4792
2026-07-08 09:51:09.675775+00:00,0.2816,-1.5089,0.3162
2026-07-08 09:51:09.676664+00:00,-0.5095,-0.9911,-0.1825
2026-07-08 09:51:09.677263+00:00,0.2054,-1.1122,0.1098
2026-07-08 09:51:09.677854+00:00,-0.3479,-1.1385,0.1005
2026-07-08 09:51:09.678059+00:00,-0.0659,-0.0639,-0.5314
2026-07-08 09:51:09.678215+00:00,0.2991,-1.5797,0.3943
2026-07-08 09:51:09.678795+00:00,-0.6076,-0.3758,-0.2601
2026-07-08 09:51:09.766102+00:00,0.3006,-1.0863,0.0961
2026-07-08 09:51:09.766814+00:00,-0.346,-1.199,0.124
2026-07-08 09:51:09.767146+00:00,-0.0732,-0.0756,-0.203
2026-07-08 09:51:09.767591+00:00,0.3021,-1.7207,0.4109
2026-07-08 09:51:09.767864+00:00,-0.488,-0.4568,-0.2206
2026-07-08 09:51:09.768104+00:00,0.2933,-1.1361,0.1225
2026-07-08 09:51:09.768733+00:00,-0.367,-1.1136,0.0795
2026-07-08 09:51:09.768950+00:00,-0.0532,-0.1088,-0.1288
2026-07-08 09:51:09.769150+00:00,0.2689,-1.7256,0.406
2026-07-08 09:51:09.820040+00:00,-0.5832,-0.3963,-0.3426
2026-07-08 09:51:09.820293+00:00,0.3035,-1.1717,0.1557
2026-07-08 09:51:09.820569+00:00,-0.3558,-1.0311,-0.0102
2026-07-08 09:51:09.820811+00:00,0.0171,-0.914,-0.0273
2026-07-08 09:51:09.821265+00:00,-0.1069,-1.666,0.3689
2026-07-08 09:51:09.821398+00:00,-0.1932,0.0932,-0.6198
2026-07-08 09:51:09.885025+00:00,0.3592,-1.2551,0.4343
2026-07-08 09:51:09.885633+00:00,-0.3802,-0.8847,-0.0644
2026-07-08 09:51:09.886030+00:00,0.3572,-1.0643,0.0595
2026-07-08 09:51:09.886252+00:00,-0.2191,-1.5182,0.2952
2026-07-08 09:51:09.886544+00:00,-0.2577,0.1596,-0.3465
2026-07-08 09:51:09.887103+00:00,0.3821,-1.445,0.5217
2026-07-08 09:51:09.948114+00:00,-0.5636,-0.5807,-0.2269
2026-07-08 09:51:09.948845+00:00,0.3509,-1.3171,0.1884
2026-07-08 09:51:09.949314+00:00,-0.3689,-1.3274,0.182
2026-07-08 09:51:09.949837+00:00,-0.1776,-0.0185,-0.1015
2026-07-08 09:51:09.950169+00:00,0.3802,-1.9369,0.5119
2026-07-08 09:51:09.950516+00:00,-0.6027,-0.4475,-0.3079
2026-07-08 09:51:10.000082+00:00,0.3074,-1.6172,0.3406
2026-07-08 09:51:10.001183+00:00,-0.3631,-0.9843,-0.0342
2026-07-08 09:51:10.002108+00:00,0.1498,-0.9184,-0.0239
2026-07-08 09:51:10.002948+00:00,-0.1474,-1.8202,0.4421
2026-07-08 09:51:10.005553+00:00,-0.222,0.0976,-0.6207
2026-07-08 09:51:10.006199+00:00,0.3035,-1.5743,0.3523
2026-07-08 09:51:10.058859+00:00,-0.1274,-0.7501,-0.0908
2026-07-08 09:51:10.059424+00:00,0.1576,-0.7808,-0.0756
2026-07-08 09:51:10.059840+00:00,-0.1874,-1.6987,0.3875
2026-07-08 09:51:10.060220+00:00,-0.063,0.1449,-0.3762
2026-07-08 09:51:10.060520+00:00,0.2865,-1.523,0.3289
2026-07-08 09:51:10.112680+00:00,-0.1957,-0.7125,-0.1103
2026-07-08 09:51:10.113161+00:00,0.2723,-0.7183,-0.1039
2026-07-08 09:51:10.113868+00:00,-0.2108,-1.6734,0.3665
2026-07-08 09:51:10.114634+00:00,-0.039,0.1044,-0.3665
2026-07-08 09:51:10.115545+00:00,0.2733,-1.4552,0.2918
2026-07-08 09:51:10.116129+00:00,-0.5319,-0.7466,-0.083
2026-07-08 09:51:10.172374+00:00,0.2338,-0.7003,-0.1142
2026-07-08 09:51:10.173279+00:00,-0.2123,-1.7124,0.0483
2026-07-08 09:51:10.173653+00:00,-0.1083,-0.2425,-0.3875
2026-07-08 09:51:10.173955+00:00,0.3001,-1.4337,0.283
2026-07-08 09:51:10.174124+00:00,-0.6232,-0.893,-0.019
2026-07-08 09:51:10.174372+00:00,0.1737,-0.7637,0.1649
2026-07-08 09:51:10.221491+00:00,-0.2064,-1.0897,0.0722
2026-07-08 09:51:10.221906+00:00,-0.0059,-0.1435,-0.4782
2026-07-08 09:51:10.222234+00:00,0.305,-1.4816,0.3167
2026-07-08 09:51:10.222466+00:00,-0.6281,-1.0653,-0.263
2026-07-08 09:51:10.222710+00:00,0.1972,-0.8843,0.0927
2026-07-08 09:51:10.276963+00:00,-0.1957,-1.2068,0.1366
2026-07-08 09:51:10.277492+00:00,-0.0659,-0.0063,-0.5553
2026-07-08 09:51:10.277708+00:00,0.3123,-1.5523,0.3309
2026-07-08 09:51:10.278347+00:00,-0.7588,-1.0326,-0.2557
2026-07-08 09:51:10.278755+00:00,0.204,-1.0512,0.0756
2026-07-08 09:51:10.337765+00:00,-0.3279,-1.2703,0.163
2026-07-08 09:51:10.338335+00:00,-0.082,-0.0346,-0.548
2026-07-08 09:51:10.338702+00:00,0.3357,-1.544,0.4143
2026-07-08 09:51:10.339136+00:00,-0.6734,-0.3348,-0.2845
2026-07-08 09:51:10.339445+00:00,0.2967,-1.097,0.0966
2026-07-08 09:51:10.339934+00:00,-0.3562,-1.1941,0.1269
2026-07-08 09:51:10.402623+00:00,-0.0771,-0.0425,-0.1962
2026-07-08 09:51:10.403347+00:00,0.3157,-1.6343,0.4163
2026-07-08 09:51:10.403717+00:00,-0.6056,-0.4982,-0.2333
2026-07-08 09:51:10.404053+00:00,0.2938,-1.1488,0.1293
2026-07-08 09:51:10.404264+00:00,-0.3709,-1.0868,0.062
2026-07-08 09:51:10.405784+00:00,-0.0371,-0.141,-0.0922
2026-07-08 09:51:10.406496+00:00,0.2377,-1.7095,0.3972
2026-07-08 09:51:10.465493+00:00,-0.4973,-0.2289,-0.4592
2026-07-08 09:51:10.465926+00:00,0.3309,-1.2068,0.1742
2026-07-08 09:51:10.466128+00:00,-0.3572,-1.0121,-0.0342
2026-07-08 09:51:10.466656+00:00,0.0678,-0.9897,0.0156
2026-07-08 09:51:10.467146+00:00,-0.1444,-1.605,0.345
2026-07-08 09:51:10.467506+00:00,-0.1132,0.2137,-0.6246
2026-07-08 09:51:10.514673+00:00,0.3753,-1.3244,0.4992
2026-07-08 09:51:10.515352+00:00,-0.4714,-0.7476,-0.1269
2026-07-08 09:51:10.515774+00:00,0.3396,-1.1775,0.1249
2026-07-08 09:51:10.516182+00:00,-0.2967,-1.3962,0.2318
2026-07-08 09:51:10.516376+00:00,-0.2113,0.039,-0.203
2026-07-08 09:51:10.577908+00:00,0.3909,-1.9915,0.5236
2026-07-08 09:51:10.578408+00:00,-0.6593,-0.5378,-0.2142
2026-07-08 09:51:10.579664+00:00,0.3231,-1.5411,0.2791
2026-07-08 09:51:10.580208+00:00,-0.4992,-1.3215,0.1166
2026-07-08 09:51:10.580771+00:00,-0.0049,-0.2757,-0.0532
2026-07-08 09:51:10.581710+00:00,0.327,-1.8812,0.4773
2026-07-08 09:51:10.641871+00:00,-0.3538,-0.161,-0.4909
2026-07-08 09:51:10.642504+00:00,0.3055,-1.5962,0.3753
2026-07-08 09:51:10.642989+00:00,-0.2103,-0.5573,-0.0717
2026-07-08 09:51:10.643385+00:00,0.1747,-0.8262,-0.06
2026-07-08 09:51:10.643645+00:00,-0.1688,-1.7485,0.4109
2026-07-08 09:51:10.643906+00:00,-0.1371,0.161,-0.6168
2026-07-08 09:51:10.644183+00:00,0.2928,-1.5401,0.3357
2026-07-08 09:51:10.709054+00:00,-0.1327,-0.7403,-0.0981
2026-07-08 09:51:10.709563+00:00,0.2377,-0.7222,-0.0996
2026-07-08 09:51:10.709876+00:00,-0.1947,-1.6973,0.3821
2026-07-08 09:51:10.710511+00:00,-0.0761,0.1205,-0.3616
2026-07-08 09:51:10.710826+00:00,0.2743,-1.4572,0.3035
2026-07-08 09:51:10.711217+00:00,-0.5026,-0.7613,-0.0766
2026-07-08 09:51:10.773279+00:00,0.2181,-0.6954,-0.1157
2026-07-08 09:51:10.773718+00:00,-0.2006,-1.7246,0.0107
2026-07-08 09:51:10.774271+00:00,-0.1254,0.0527,-0.367
2026-07-08 09:51:10.774499+00:00,0.2625,-1.4181,0.283
2026-07-08 09:51:10.774910+00:00,-0.6505,-0.9096,-0.0181
2026-07-08 09:51:10.775413+00:00,0.162,-0.7296,-0.1108
2026-07-08 09:51:10.775986+00:00,-0.202,-1.7866,0.0849
2026-07-08 09:51:10.822655+00:00,-0.2757,-0.1825,-0.4368
2026-07-08 09:51:10.823225+00:00,0.3055,-1.4611,0.3118
2026-07-08 09:51:10.823771+00:00,-0.6612,-1.118,0.0332
2026-07-08 09:51:10.824077+00:00,0.1845,-0.8276,0.0932
2026-07-08 09:51:10.824330+00:00,-0.1972,-1.2346,0.1532
2026-07-08 09:51:10.887191+00:00,-0.0717,0.0151,-0.5607
2026-07-08 09:51:10.887615+00:00,0.3152,-1.5152,0.3157
2026-07-08 09:51:10.887866+00:00,-0.6988,-1.0321,-0.2133
2026-07-08 09:51:10.888220+00:00,0.2118,-1.0297,0.0576
2026-07-08 09:51:10.888483+00:00,-0.2664,-1.3191,0.1923
2026-07-08 09:51:10.888680+00:00,-0.0908,-0.0093,-0.5514
2026-07-08 09:51:10.956386+00:00,0.3265,-1.4962,0.4333
2026-07-08 09:51:10.956658+00:00,-0.7525,-1.058,-0.2469
2026-07-08 09:51:10.956941+00:00,0.2025,-1.037,0.0556
2026-07-08 09:51:10.957350+00:00,-0.3338,-1.2908,0.1732
2026-07-08 09:51:10.957649+00:00,-0.0869,0.0127,-0.5734
2026-07-08 09:51:10.958040+00:00,0.3436,-1.5679,0.4192
2026-07-08 09:51:10.958213+00:00,-0.6876,-0.3416,-0.285
2026-07-08 09:51:11.013257+00:00,0.3021,-1.1136,0.103
2026-07-08 09:51:11.013788+00:00,-0.3597,-1.1741,0.1186
2026-07-08 09:51:11.014117+00:00,-0.08,-0.0473,-0.1859
2026-07-08 09:51:11.014446+00:00,0.3157,-1.7431,0.4187
2026-07-08 09:51:11.014710+00:00,-0.6534,-0.4592,-0.2689
2026-07-08 09:51:11.014988+00:00,0.2952,-1.1605,0.1464
2026-07-08 09:51:11.077035+00:00,-0.3626,-1.0624,0.0054
2026-07-08 09:51:11.077330+00:00,-0.0093,-0.9355,-0.0517
2026-07-08 09:51:11.077587+00:00,0.1957,-1.6841,0.3884
2026-07-08 09:51:11.078314+00:00,-0.3348,0.0,-0.5924
2026-07-08 09:51:11.078728+00:00,0.3518,-1.24,0.4441
2026-07-08 09:51:11.079085+00:00,-0.3538,-0.9799,-0.0537
2026-07-08 09:51:11.124389+00:00,0.0917,-1.0487,0.0488
2026-07-08 09:51:11.124779+00:00,-0.205,-1.544,0.3113
2026-07-08 09:51:11.124943+00:00,-0.2562,0.1898,-0.6202
2026-07-08 09:51:11.125385+00:00,0.3841,-1.4172,0.5231
2026-07-08 09:51:11.126148+00:00,-0.5675,-0.5924,-0.2079
2026-07-08 09:51:11.193961+00:00,0.3436,-1.2995,0.184
2026-07-08 09:51:11.194448+00:00,-0.3265,-1.343,0.1942
2026-07-08 09:51:11.194771+00:00,-0.2206,-0.1025,-0.1288
2026-07-08 09:51:11.195105+00:00,0.3919,-1.9486,0.5158
2026-07-08 09:51:11.195385+00:00,-0.7086,-0.5427,-0.2157
2026-07-08 09:51:11.195605+00:00,0.2967,-1.6216,0.3318
2026-07-08 09:51:11.196444+00:00,-0.3836,-1.2054,0.001
2026-07-08 09:51:11.269000+00:00,0.0864,-0.8345,-0.06
2026-07-08 09:51:11.269667+00:00,-0.1932,-1.851,0.4534
2026-07-08 09:51:11.269983+00:00,-0.2982,-0.1264,-0.507
2026-07-08 09:51:11.270248+00:00,0.3045,-1.5831,0.3582
2026-07-08 09:51:11.270534+00:00,-0.1976,-0.6256,-0.0522
2026-07-08 09:51:11.270862+00:00,0.1645,-0.752,-0.0922
2026-07-08 09:51:11.271212+00:00,-0.1684,-1.7666,0.4124
2026-07-08 09:51:11.351177+00:00,-0.1869,0.0488,-0.5954
2026-07-08 09:51:11.351766+00:00,0.284,-1.5426,0.3196
2026-07-08 09:51:11.352050+00:00,-0.204,-0.8555,-0.0473
2026-07-08 09:51:11.352248+00:00,0.1713,-0.6988,-0.1171
2026-07-08 09:51:11.352613+00:00,-0.1786,-1.768,0.4026
2026-07-08 09:51:11.417288+00:00,-0.1967,-0.0493,-0.367
2026-07-08 09:51:11.417575+00:00,0.2733,-1.4191,0.2977
2026-07-08 09:51:11.417852+00:00,-0.6651,-0.9862,0.0
2026-07-08 09:51:11.418087+00:00,0.1484,-0.713,-0.1264
2026-07-08 09:51:11.418246+00:00,-0.1942,-1.8056,0.1191
2026-07-08 09:51:11.418531+00:00,-0.3421,-0.3265,-0.4168
2026-07-08 09:51:11.418784+00:00,0.285,-1.4528,0.3016
2026-07-08 09:51:11.419155+00:00,-0.6759,-1.158,0.0508
2026-07-08 09:51:11.419549+00:00,0.185,-0.7857,0.0098
2026-07-08 09:51:11.420031+00:00,-0.1903,-1.872,0.1859
2026-07-08 09:51:11.468944+00:00,-0.3967,0.0059,-0.5422
2026-07-08 09:51:11.469469+00:00,0.3157,-1.4679,0.2933
2026-07-08 09:51:11.469749+00:00,-0.6071,-1.0038,0.0659
2026-07-08 09:51:11.470291+00:00,0.2162,-0.8628,0.0307
2026-07-08 09:51:11.470601+00:00,-0.122,-1.3737,0.223
2026-07-08 09:51:11.515570+00:00,-0.1015,0.0259,-0.5632
2026-07-08 09:51:11.515862+00:00,0.3177,-1.4655,0.2865
2026-07-08 09:51:11.516019+00:00,-0.5187,-0.9448,-0.144
2026-07-08 09:51:11.516655+00:00,0.2094,-0.9916,0.041
2026-07-08 09:51:11.517038+00:00,-0.2967,-1.3854,0.2269
2026-07-08 09:51:11.567417+00:00,-0.1103,0.0181,-0.5671
2026-07-08 09:51:11.567994+00:00,0.3323,-1.4996,0.4036
2026-07-08 09:51:11.569195+00:00,-0.6915,-0.6554,-0.2259
2026-07-08 09:51:11.569831+00:00,0.2054,-1.0409,0.0576
2026-07-08 09:51:11.570203+00:00,-0.3314,-1.3059,0.1854
2026-07-08 09:51:11.633486+00:00,-0.0961,0.0264,-0.3328
2026-07-08 09:51:11.634280+00:00,0.3523,-1.5767,0.4211
2026-07-08 09:51:11.637560+00:00,-0.6686,-0.3255,-0.2894
2026-07-08 09:51:11.639376+00:00,0.3109,-1.1224,0.1098
2026-07-08 09:51:11.639924+00:00,-0.3645,-1.1614,0.1083
2026-07-08 09:51:11.640406+00:00,-0.0805,-0.0586,-0.1654
2026-07-08 09:51:11.640816+00:00,0.3143,-1.7378,0.4197
2026-07-08 09:51:11.690120+00:00,-0.6583,-0.4329,-0.3099
2026-07-08 09:51:11.690504+00:00,0.3045,-1.1634,0.1527
2026-07-08 09:51:11.690783+00:00,-0.3523,-1.0375,-0.0122
2026-07-08 09:51:11.690972+00:00,0.0078,-0.9052,-0.0332
2026-07-08 09:51:11.691251+00:00,-0.0942,-1.6748,0.3806
2026-07-08 09:51:11.691473+00:00,-0.181,0.1254,-0.6324
2026-07-08 09:51:11.739402+00:00,0.3592,-1.2512,0.4348
2026-07-08 09:51:11.739785+00:00,-0.3475,-0.9628,-0.082
2026-07-08 09:51:11.740239+00:00,0.0869,-1.0609,0.0527
2026-07-08 09:51:11.740528+00:00,-0.223,-1.5362,0.3065
2026-07-08 09:51:11.740728+00:00,-0.2089,0.1435,-0.6124
2026-07-08 09:51:11.789562+00:00,0.3728,-1.443,0.5153
2026-07-08 09:51:11.789819+00:00,-0.6178,-0.5114,-0.263
2026-07-08 09:51:11.789964+00:00,0.3289,-1.3147,0.1781
2026-07-08 09:51:11.790046+00:00,-0.3167,-1.3503,0.1972
2026-07-08 09:51:11.790119+00:00,-0.3001,-0.203,-0.1771
2026-07-08 09:51:11.839894+00:00,0.3802,-1.8861,0.4943
2026-07-08 09:51:11.840145+00:00,-0.7452,-0.6852,-0.1196
2026-07-08 09:51:11.840363+00:00,0.2835,-1.5455,0.2811
2026-07-08 09:51:11.840465+00:00,-0.5632,-1.2127,0.0586
2026-07-08 09:51:11.840540+00:00,-0.1508,-0.7315,-0.142
2026-07-08 09:51:11.901979+00:00,-0.1064,-1.8368,0.4407
2026-07-08 09:51:11.902563+00:00,-0.692,-0.6564,-0.1493
2026-07-08 09:51:11.902983+00:00,0.2884,-1.5489,0.3201
2026-07-08 09:51:11.903310+00:00,-0.569,-1.1912,0.0756
2026-07-08 09:51:11.903564+00:00,-0.1332,-0.6808,-0.1566
2026-07-08 09:51:11.903958+00:00,-0.1225,-1.7963,0.4133
2026-07-08 09:51:11.966496+00:00,-0.6617,-0.6417,-0.1132
2026-07-08 09:51:11.966857+00:00,0.2933,-1.5069,0.3079
2026-07-08 09:51:11.967655+00:00,-0.4172,-0.8667,-0.0005
2026-07-08 09:51:11.968545+00:00,0.1469,-0.6222,-0.185
2026-07-08 09:51:11.969085+00:00,-0.083,-1.7548,0.4099
2026-07-08 09:51:11.969305+00:00,-0.4797,-0.4665,-0.5139
2026-07-08 09:51:12.027360+00:00,0.3304,-1.4742,0.3055
2026-07-08 09:51:12.027775+00:00,-0.2152,-0.4924,-0.1625
2026-07-08 09:51:12.028203+00:00,0.1703,-0.5353,-0.2728
2026-07-08 09:51:12.028555+00:00,0.0468,-1.7217,0.3675
2026-07-08 09:51:12.028930+00:00,-0.4485,-0.0044,-0.5446
2026-07-08 09:51:12.029317+00:00,0.2313,-1.3932,0.2547
2026-07-08 09:51:12.076697+00:00,-0.3084,-0.8774,-0.0815
2026-07-08 09:51:12.077466+00:00,0.1693,-0.5095,-0.0332
2026-07-08 09:51:12.077827+00:00,0.1581,-1.7656,0.3816
2026-07-08 09:51:12.078208+00:00,-0.5392,-0.1606,-0.4499
2026-07-08 09:51:12.078483+00:00,0.305,-1.3386,0.2157
2026-07-08 09:51:12.140172+00:00,-0.4519,-1.2102,-0.0605
2026-07-08 09:51:12.140612+00:00,0.0303,-0.3914,-0.0185
2026-07-08 09:51:12.140963+00:00,0.183,-1.7182,0.3777
2026-07-08 09:51:12.141271+00:00,-0.3001,-0.1889,-0.4363
2026-07-08 09:51:12.141632+00:00,0.3206,-1.3742,0.2381
2026-07-08 09:51:12.141977+00:00,-0.4592,-1.1366,-0.0273
2026-07-08 09:51:12.142187+00:00,0.0893,-0.9521,-0.02
2026-07-08 09:51:12.189211+00:00,-0.1688,-1.7168,0.387
2026-07-08 09:51:12.189669+00:00,-0.284,-0.0849,-0.4968
2026-07-08 09:51:12.190367+00:00,0.3221,-1.3967,0.3777
2026-07-08 09:51:12.190740+00:00,-0.3494,-0.8667,-0.0766
2026-07-08 09:51:12.191132+00:00,0.2318,-1.0155,0.0215
2026-07-08 09:51:12.239589+00:00,-0.2074,-1.6246,0.3494
2026-07-08 09:51:12.240286+00:00,-0.2025,0.0312,-0.4436
2026-07-08 09:51:12.240522+00:00,0.3274,-1.465,0.4099
2026-07-08 09:51:12.240761+00:00,-0.3841,-0.7222,-0.101
2026-07-08 09:51:12.241068+00:00,0.2708,-1.0258,0.0673
2026-07-08 09:51:12.289648+00:00,-0.2738,-1.4323,0.2655
2026-07-08 09:51:12.290417+00:00,-0.1542,0.0834,-0.3606
2026-07-08 09:51:12.290596+00:00,0.365,-1.7412,0.4451
2026-07-08 09:51:12.290700+00:00,-0.3626,-0.4041,-0.2889
2026-07-08 09:51:12.291052+00:00,0.3026,-1.1385,0.1049
2026-07-08 09:51:12.351812+00:00,-0.3582,-1.1727,0.041
2026-07-08 09:51:12.352134+00:00,-0.1015,-0.649,-0.2025
2026-07-08 09:51:12.352350+00:00,-0.0268,-1.7705,0.4314
2026-07-08 09:51:12.352518+00:00,-0.69,-0.4612,-0.2957
2026-07-08 09:51:12.352727+00:00,0.304,-1.2054,0.3367
2026-07-08 09:51:12.353038+00:00,-0.3582,-1.1175,-0.0307
2026-07-08 09:51:12.414712+00:00,0.1972,-0.7462,-0.101
2026-07-08 09:51:12.414944+00:00,-0.1157,-1.7241,0.4031
2026-07-08 09:51:12.415234+00:00,-0.1854,0.1513,-0.3836
2026-07-08 09:51:12.415758+00:00,0.3245,-1.321,0.3943
2026-07-08 09:51:12.416584+00:00,-0.1327,-0.7647,-0.1132
2026-07-08 09:51:12.417597+00:00,0.2752,-0.7637,-0.0878
2026-07-08 09:51:12.466752+00:00,-0.1937,-1.6748,0.3733
2026-07-08 09:51:12.467140+00:00,-0.0615,0.2157,-0.3645
2026-07-08 09:51:12.467624+00:00,0.3045,-1.6494,0.3723
2026-07-08 09:51:12.467948+00:00,-0.4338,-0.7154,-0.123
2026-07-08 09:51:12.468071+00:00,0.3455,-0.7901,-0.0703
2026-07-08 09:51:12.545665+00:00,-0.224,-1.6216,0.0044
2026-07-08 09:51:12.546333+00:00,-0.0034,-0.3616,-0.3445
2026-07-08 09:51:12.546514+00:00,0.2982,-1.5782,0.3401
2026-07-08 09:51:12.546805+00:00,-0.4319,-0.7408,-0.1103
2026-07-08 09:51:12.547116+00:00,0.3392,-0.7803,0.3157
2026-07-08 09:51:12.547538+00:00,-0.2196,-1.2361,0.0737
2026-07-08 09:51:12.547950+00:00,0.0883,-0.3318,-0.2962
2026-07-08 09:51:12.548719+00:00,0.3265,-1.5221,0.3055
2026-07-08 09:51:12.620758+00:00,-0.5929,-0.8721,-0.1864
2026-07-08 09:51:12.621398+00:00,0.2679,-0.7457,0.2704
2026-07-08 09:51:12.621771+00:00,-0.1869,-1.1868,0.121
2026-07-08 09:51:12.622226+00:00,-0.2084,-0.3982,-0.324
2026-07-08 09:51:12.622856+00:00,0.3382,-1.4786,0.2938
2026-07-08 09:51:12.623664+00:00,-0.6349,-1.1273,-0.1698
2026-07-08 09:51:12.670238+00:00,0.1845,-1.282,0.183
2026-07-08 09:51:12.670576+00:00,-0.3245,-1.2703,0.1591
2026-07-08 09:51:12.670740+00:00,-0.1718,-0.144,-0.4982
2026-07-08 09:51:12.670892+00:00,0.3133,-1.4762,0.4485
2026-07-08 09:51:12.670981+00:00,-0.5065,-0.7427,-0.1264
2026-07-08 09:51:12.671220+00:00,0.3626,-1.1409,0.1064
2026-07-08 09:51:12.671495+00:00,-0.2899,-1.3737,0.2069
2026-07-08 09:51:12.733638+00:00,-0.1893,-0.0015,-0.2469
2026-07-08 09:51:12.734093+00:00,0.3226,-1.8334,0.4543
2026-07-08 09:51:12.734453+00:00,-0.4934,-0.6788,-0.1645
2026-07-08 09:51:12.734738+00:00,0.3445,-1.1922,0.1244
2026-07-08 09:51:12.734834+00:00,-0.2957,-1.3874,-0.0381
2026-07-08 09:51:12.735743+00:00,-0.1606,-0.0068,-0.2508
2026-07-08 09:51:12.788700+00:00,0.3279,-1.8578,0.4685
2026-07-08 09:51:12.789151+00:00,-0.4992,-0.6451,-0.1859
2026-07-08 09:51:12.789319+00:00,0.3601,-1.2234,0.1376
2026-07-08 09:51:12.789495+00:00,-0.3231,-1.343,-0.0303
2026-07-08 09:51:12.789644+00:00,-0.1552,-0.712,-0.1698
2026-07-08 09:51:12.840853+00:00,-0.0376,-1.8803,0.4846
2026-07-08 09:51:12.841489+00:00,-0.4841,-0.4807,-0.2835
2026-07-08 09:51:12.841907+00:00,0.3621,-1.3156,0.3167
2026-07-08 09:51:12.842244+00:00,-0.4353,-1.015,0.0556
2026-07-08 09:51:12.842788+00:00,0.1976,-0.9126,-0.063
2026-07-08 09:51:12.843025+00:00,-0.1113,-1.8388,0.4641
2026-07-08 09:51:12.892296+00:00,-0.4133,-0.2069,-0.5983
2026-07-08 09:51:12.892835+00:00,0.3406,-1.5128,0.3802
2026-07-08 09:51:12.892977+00:00,-0.6188,-0.9453,-0.0561
2026-07-08 09:51:12.893231+00:00,0.2045,-1.0409,0.0244
2026-07-08 09:51:12.893788+00:00,-0.1659,-1.6875,0.0117
2026-07-08 09:51:12.954880+00:00,-0.2381,0.0512,-0.5168
2026-07-08 09:51:12.955318+00:00,0.3333,-1.7241,0.4246
2026-07-08 09:51:12.955483+00:00,-0.488,-0.7115,-0.1166
2026-07-08 09:51:12.955579+00:00,0.2645,-1.0497,0.0722
2026-07-08 09:51:12.955663+00:00,-0.2874,-1.3996,-0.0224
2026-07-08 09:51:12.955739+00:00,-0.1728,-0.3704,-0.3533
2026-07-08 09:51:13.016883+00:00,0.0786,-1.7407,0.447
2026-07-08 09:51:13.017131+00:00,-0.5388,-0.3148,-0.2747
2026-07-08 09:51:13.017291+00:00,0.3079,-1.1697,0.2464
2026-07-08 09:51:13.017414+00:00,-0.4597,-1.0775,0.0805
2026-07-08 09:51:13.017572+00:00,0.1054,-0.6232,-0.205
2026-07-08 09:51:13.017696+00:00,-0.0615,-1.7548,0.4197
2026-07-08 09:51:13.081795+00:00,-0.6432,-0.4958,-0.5627
2026-07-08 09:51:13.082428+00:00,0.3035,-1.5596,0.3396
2026-07-08 09:51:13.082662+00:00,-0.7447,-1.0204,-0.021
2026-07-08 09:51:13.082784+00:00,0.1493,-0.6988,-0.1322
2026-07-08 09:51:13.083072+00:00,-0.1259,-1.768,0.164
2026-07-08 09:51:13.083605+00:00,-0.2289,0.041,-0.4006
2026-07-08 09:51:13.084152+00:00,0.2967,-1.5435,0.3572
2026-07-08 09:51:13.138389+00:00,-0.6978,-0.8755,-0.0693
2026-07-08 09:51:13.138920+00:00,0.203,-0.6983,-0.1225
2026-07-08 09:51:13.139191+00:00,-0.1635,-1.7495,0.1322
2026-07-08 09:51:13.139552+00:00,-0.1776,-0.3567,-0.3382
2026-07-08 09:51:13.139922+00:00,0.3665,-1.5069,0.3338
2026-07-08 09:51:13.140296+00:00,-0.7125,-0.9165,-0.0483
2026-07-08 09:51:13.198420+00:00,0.2137,-0.6905,0.2664
2026-07-08 09:51:13.198708+00:00,-0.1591,-1.219,0.1225
2026-07-08 09:51:13.198818+00:00,-0.264,-0.3841,-0.3362
2026-07-08 09:51:13.198935+00:00,0.3401,-1.464,0.3079
2026-07-08 09:51:13.199025+00:00,-0.6651,-1.097,-0.1889
2026-07-08 09:51:13.273525+00:00,0.1669,-1.3303,0.2006
2026-07-08 09:51:13.274017+00:00,-0.2664,-1.2937,0.1732
2026-07-08 09:51:13.274405+00:00,-0.1864,-0.222,-0.4519
2026-07-08 09:51:13.274914+00:00,0.3123,-1.4337,0.2704
2026-07-08 09:51:13.275239+00:00,-0.528,-1.1239,-0.0927
2026-07-08 09:51:13.275517+00:00,0.1366,-1.1122,0.0942
2026-07-08 09:51:13.275764+00:00,-0.2796,-1.3913,0.2181
2026-07-08 09:51:13.276275+00:00,-0.1723,0.0068,-0.5246
2026-07-08 09:51:13.362009+00:00,0.3143,-1.3859,0.4372
2026-07-08 09:51:13.362616+00:00,-0.4538,-0.8208,-0.0839
2026-07-08 09:51:13.362990+00:00,0.3357,-1.1019,0.0737
2026-07-08 09:51:13.363242+00:00,-0.2552,-1.4552,0.2435
2026-07-08 09:51:13.363401+00:00,-0.1952,0.0669,-0.306
2026-07-08 09:51:13.363615+00:00,0.3279,-1.8232,0.446
2026-07-08 09:51:13.363957+00:00,-0.5319,-0.7593,-0.121
2026-07-08 09:51:13.364203+00:00,0.3333,-1.1253,0.0917
2026-07-08 09:51:13.364569+00:00,-0.2767,-1.4362,-0.0737
2026-07-08 09:51:13.414885+00:00,-0.1937,-0.5822,-0.2869
2026-07-08 09:51:13.415360+00:00,0.0942,-1.8627,0.4704
2026-07-08 09:51:13.415846+00:00,-0.5207,-0.6842,-0.1674
2026-07-08 09:51:13.416312+00:00,0.3548,-1.201,0.1274
2026-07-08 09:51:13.416688+00:00,-0.3128,-1.363,-0.0356
2026-07-08 09:51:13.466105+00:00,-0.1679,-0.6905,-0.1864
2026-07-08 09:51:13.466367+00:00,-0.0181,-1.8964,0.4929
2026-07-08 09:51:13.466486+00:00,-0.4953,-0.4763,-0.2874
2026-07-08 09:51:13.466582+00:00,0.3636,-1.323,0.3192
2026-07-08 09:51:13.466750+00:00,-0.4597,-1.0263,0.0498
2026-07-08 09:51:13.526713+00:00,0.1952,-0.9277,-0.059
2026-07-08 09:51:13.527558+00:00,-0.1118,-1.8388,0.4612
2026-07-08 09:51:13.527798+00:00,-0.407,-0.1576,-0.6032
2026-07-08 09:51:13.527924+00:00,0.3357,-1.6368,0.3904
2026-07-08 09:51:13.528019+00:00,-0.4958,-0.8935,-0.0708
2026-07-08 09:51:13.528218+00:00,0.2142,-1.059,0.0337
2026-07-08 09:51:13.591988+00:00,-0.1806,-1.6553,0.0547
2026-07-08 09:51:13.592287+00:00,-0.2094,-0.1576,-0.4973
2026-07-08 09:51:13.592589+00:00,0.3436,-1.7314,0.4382
2026-07-08 09:51:13.592743+00:00,-0.4792,-0.7193,-0.1684
2026-07-08 09:51:13.593015+00:00,0.2664,-1.0453,0.0742
2026-07-08 09:51:13.593291+00:00,-0.3118,-1.3322,-0.0395
2026-07-08 09:51:13.593841+00:00,-0.1957,-0.406,-0.3314
2026-07-08 09:51:13.651833+00:00,0.0576,-1.7348,0.4407
2026-07-08 09:51:13.652283+00:00,-0.7232,-0.4524,-0.1986
2026-07-08 09:51:13.652546+00:00,0.2996,-1.2049,0.2757
2026-07-08 09:51:13.652778+00:00,-0.5163,-1.1097,0.0791
2026-07-08 09:51:13.653140+00:00,0.1103,-0.6193,-0.1928
2026-07-08 09:51:13.653415+00:00,-0.0917,-1.7636,0.4187
2026-07-08 09:51:13.703715+00:00,-0.5988,-0.4914,-0.5056
2026-07-08 09:51:13.704078+00:00,0.3011,-1.5323,0.3382
2026-07-08 09:51:13.704276+00:00,-0.6285,-1.0394,-0.0132
2026-07-08 09:51:13.704411+00:00,0.1435,-0.6856,-0.1357
2026-07-08 09:51:13.704652+00:00,-0.1259,-1.7851,0.1479
2026-07-08 09:51:13.763561+00:00,-0.2708,-0.1513,-0.3816
2026-07-08 09:51:13.764232+00:00,0.286,-1.5104,0.3357
2026-07-08 09:51:13.764507+00:00,-0.7296,-0.9906,-0.0264
2026-07-08 09:51:13.764760+00:00,0.1713,-0.6681,0.2396
2026-07-08 09:51:13.764960+00:00,-0.1464,-1.7729,0.1337
2026-07-08 09:51:13.765261+00:00,-0.2679,-0.3704,-0.3543
2026-07-08 09:51:13.824831+00:00,0.3387,-1.462,0.3118
2026-07-08 09:51:13.825373+00:00,-0.6881,-1.0995,0.0205
2026-07-08 09:51:13.825743+00:00,0.1586,-0.6627,0.2011
2026-07-08 09:51:13.825908+00:00,-0.1488,-1.3015,0.1806
2026-07-08 09:51:13.826124+00:00,-0.1723,-0.2577,-0.425
2026-07-08 09:51:13.826427+00:00,0.3021,-1.4523,0.2811
2026-07-08 09:51:13.884693+00:00,-0.5485,-1.1492,-0.1215
2026-07-08 09:51:13.884997+00:00,0.124,-1.1165,0.0849
2026-07-08 09:51:13.885232+00:00,-0.2752,-1.4269,0.2391
2026-07-08 09:51:13.885509+00:00,-0.0981,-0.0068,-0.5207
2026-07-08 09:51:13.885742+00:00,0.2865,-1.3415,0.3933
2026-07-08 09:51:13.885960+00:00,-0.4046,-1.0472,-0.0171
2026-07-08 09:51:13.947346+00:00,0.3636,-1.0121,0.0278
2026-07-08 09:51:13.947963+00:00,-0.2294,-1.4957,0.265
2026-07-08 09:51:13.948275+00:00,-0.0395,0.083,-0.5363
2026-07-08 09:51:13.948478+00:00,0.3231,-1.2771,0.407
2026-07-08 09:51:13.948690+00:00,-0.4153,-0.8657,-0.063
2026-07-08 09:51:13.949153+00:00,0.2874,-1.0399,0.0483
2026-07-08 09:51:14.011740+00:00,-0.223,-1.5352,0.2855
2026-07-08 09:51:14.012209+00:00,-0.0654,0.1274,-0.3411
2026-07-08 09:51:14.012519+00:00,0.3148,-1.7739,0.4231
2026-07-08 09:51:14.013174+00:00,-0.5583,-0.8716,-0.0605
2026-07-08 09:51:14.013501+00:00,0.3084,-1.0497,0.0571
2026-07-08 09:51:14.013638+00:00,-0.2416,-1.4977,-0.0234
2026-07-08 09:51:14.013864+00:00,-0.1898,-0.4724,-0.3382
2026-07-08 09:51:14.075429+00:00,0.2216,-1.8466,0.4626
2026-07-08 09:51:14.089549+00:00,-0.5461,-0.7574,-0.1249
2026-07-08 09:51:14.089729+00:00,0.3416,-1.1302,0.2733
2026-07-08 09:51:14.089824+00:00,-0.2923,-1.4132,-0.062
2026-07-08 09:51:14.090161+00:00,-0.1976,-0.6242,-0.245
2026-07-08 09:51:14.090375+00:00,0.0376,-1.9012,0.4934
2026-07-08 09:51:14.127202+00:00,-0.5158,-0.5427,-0.2528
2026-07-08 09:51:14.127624+00:00,0.3645,-1.2966,0.306
2026-07-08 09:51:14.127902+00:00,-0.3562,-0.9784,0.0566
2026-07-08 09:51:14.128193+00:00,0.1986,-0.8784,-0.082
2026-07-08 09:51:14.128589+00:00,-0.0898,-1.8778,0.4812
2026-07-08 09:51:14.187431+00:00,-0.4441,-0.2435,-0.6115
2026-07-08 09:51:14.187962+00:00,0.3392,-1.6094,0.3797
2026-07-08 09:51:14.188269+00:00,-0.5422,-0.9653,-0.0493
2026-07-08 09:51:14.188454+00:00,0.202,-1.0433,0.0239
2026-07-08 09:51:14.188690+00:00,-0.1586,-1.707,0.0742
2026-07-08 09:51:14.188867+00:00,-0.2313,-0.0991,-0.5241
2026-07-08 09:51:14.189140+00:00,0.3314,-1.7143,0.4226
2026-07-08 09:51:14.241872+00:00,-0.4782,-0.7008,-0.1161
2026-07-08 09:51:14.242481+00:00,0.265,-1.0311,0.1845
2026-07-08 09:51:14.242705+00:00,-0.2874,-1.402,-0.0634
2026-07-08 09:51:14.242858+00:00,-0.1547,-0.3133,-0.3767
2026-07-08 09:51:14.242976+00:00,0.0952,-1.7031,0.4333
2026-07-08 09:51:14.303911+00:00,-0.5841,-0.2796,-0.2806
2026-07-08 09:51:14.304408+00:00,0.3094,-1.1653,0.2503
2026-07-08 09:51:14.304870+00:00,-0.4499,-1.0121,0.0673
2026-07-08 09:51:14.305173+00:00,0.0922,-0.5568,-0.2259
2026-07-08 09:51:14.305418+00:00,-0.0449,-1.7534,0.4172
2026-07-08 09:51:14.305736+00:00,-0.7828,-0.6564,-0.5514
2026-07-08 09:51:14.370292+00:00,0.2938,-1.4894,0.3182
2026-07-08 09:51:14.370911+00:00,-0.6495,-1.1414,0.0464
2026-07-08 09:51:14.371180+00:00,0.1127,-0.6578,-0.1732
2026-07-08 09:51:14.371399+00:00,-0.1132,-1.7929,0.2045
2026-07-08 09:51:14.371600+00:00,-0.5754,-0.2499,-0.4392
2026-07-08 09:51:14.371984+00:00,0.2845,-1.5118,0.325
2026-07-08 09:51:14.372737+00:00,-0.6744,-1.1224,0.0298
2026-07-08 09:51:14.432843+00:00,0.1288,-0.6525,0.2064
2026-07-08 09:51:14.433357+00:00,-0.1283,-1.7885,0.2001
2026-07-08 09:51:14.433632+00:00,-0.6115,-0.2513,-0.4275
2026-07-08 09:51:14.433859+00:00,0.3133,-1.4791,0.2991
2026-07-08 09:51:14.434152+00:00,-0.5934,-1.1566,0.0722
2026-07-08 09:51:14.434400+00:00,0.1161,-0.6622,0.1064
2026-07-08 09:51:14.494786+00:00,-0.1064,-1.4196,0.2372
2026-07-08 09:51:14.495155+00:00,-0.0185,-0.1049,-0.5022
2026-07-08 09:51:14.495594+00:00,0.2913,-1.3932,0.2567
2026-07-08 09:51:14.495836+00:00,-0.4172,-1.0648,-0.0283
2026-07-08 09:51:14.496054+00:00,0.0996,-1.0311,0.0337
2026-07-08 09:51:14.496352+00:00,-0.2425,-1.4884,0.2655
2026-07-08 09:51:14.583253+00:00,-0.1049,0.0878,-0.5339
2026-07-08 09:51:14.584266+00:00,0.2952,-1.2786,0.388
2026-07-08 09:51:14.584751+00:00,-0.3816,-0.9677,-0.0176
2026-07-08 09:51:14.585373+00:00,0.3494,-0.9945,0.0249
2026-07-08 09:51:14.586376+00:00,-0.2015,-1.5401,0.2855
2026-07-08 09:51:14.587315+00:00,0.0146,0.0986,-0.2977
2026-07-08 09:51:14.587624+00:00,0.3196,-1.2537,0.4011
2026-07-08 09:51:14.588090+00:00,-0.3943,-0.894,-0.0517
2026-07-08 09:51:14.588731+00:00,0.2777,-1.0204,0.0356
2026-07-08 09:51:14.640542+00:00,-0.2079,-1.5553,0.2972
2026-07-08 09:51:14.641129+00:00,-0.0386,0.1337,-0.3553
2026-07-08 09:51:14.641446+00:00,0.3187,-1.7758,0.4231
2026-07-08 09:51:14.641840+00:00,-0.5636,-0.8691,-0.0639
2026-07-08 09:51:14.642189+00:00,0.3089,-1.0468,0.0527
2026-07-08 09:51:14.700986+00:00,-0.2342,-1.5055,-0.0268
2026-07-08 09:51:14.701280+00:00,-0.1991,-0.4797,-0.3377
2026-07-08 09:51:14.701474+00:00,0.1523,-1.8568,0.4699
2026-07-08 09:51:14.701559+00:00,-0.5456,-0.7408,-0.1352
2026-07-08 09:51:14.701628+00:00,0.3499,-1.1366,0.2801
2026-07-08 09:51:14.701948+00:00,-0.2957,-0.7857,-0.0551
2026-07-08 09:51:14.702211+00:00,0.1791,-0.6456,-0.2298
2026-07-08 09:51:14.756646+00:00,0.0229,-1.9081,0.5012
2026-07-08 09:51:14.757014+00:00,-0.5139,-0.5231,-0.5129
2026-07-08 09:51:14.757442+00:00,0.367,-1.3034,0.3138
2026-07-08 09:51:14.757646+00:00,-0.4011,-1.0024,0.0576
2026-07-08 09:51:14.758113+00:00,0.1957,-0.9018,-0.0727
2026-07-08 09:51:14.810385+00:00,-0.0976,-1.8686,0.4768
2026-07-08 09:51:14.811430+00:00,-0.4358,-0.222,-0.6046
2026-07-08 09:51:14.811769+00:00,0.3353,-1.6109,0.3777
2026-07-08 09:51:14.812290+00:00,-0.5226,-0.9433,-0.0512
2026-07-08 09:51:14.812855+00:00,0.2015,-1.039,0.0268
2026-07-08 09:51:14.813344+00:00,-0.1581,-1.6982,0.0712
2026-07-08 09:51:14.870567+00:00,-0.2128,-0.1176,-0.5158
2026-07-08 09:51:14.871123+00:00,0.2767,-1.687,0.4133
2026-07-08 09:51:14.871480+00:00,-0.4699,-0.693,-0.1142
2026-07-08 09:51:14.871725+00:00,0.266,-1.0028,0.1864
2026-07-08 09:51:14.871923+00:00,-0.2816,-0.794,-0.0839
2026-07-08 09:51:14.872049+00:00,0.0102,-0.2874,-0.3958
2026-07-08 09:51:14.918681+00:00,0.1205,-1.6714,0.4153
2026-07-08 09:51:14.919142+00:00,-0.4924,-0.2518,-0.548
2026-07-08 09:51:14.919342+00:00,0.3118,-1.138,0.2464
2026-07-08 09:51:14.919443+00:00,-0.3514,-0.8716,-0.0146
2026-07-08 09:51:14.982164+00:00,0.0644,-0.4875,-0.2694
2026-07-08 09:51:14.983348+00:00,-0.0161,-1.7104,0.4099
2026-07-08 09:51:14.983875+00:00,-0.7803,-0.6227,-0.5827
2026-07-08 09:51:14.984259+00:00,0.2869,-1.4303,0.2923
2026-07-08 09:51:14.984379+00:00,-0.5222,-1.0887,0.0864
2026-07-08 09:51:14.984573+00:00,0.0922,-0.5954,-0.2025
2026-07-08 09:51:14.984858+00:00,-0.0795,-1.7539,0.2699
2026-07-08 09:51:15.045951+00:00,-0.7296,-0.0781,-0.5192
2026-07-08 09:51:15.046459+00:00,0.3094,-1.4547,0.2952
2026-07-08 09:51:15.046625+00:00,-0.5085,-1.0897,0.0859
2026-07-08 09:51:15.046708+00:00,0.0878,-0.5978,0.0337
2026-07-08 09:51:15.046774+00:00,-0.0747,-1.6128,0.2821
2026-07-08 09:51:15.046842+00:00,-0.7261,-0.0054,-0.5339
2026-07-08 09:51:15.127946+00:00,0.2874,-1.3981,0.2689
2026-07-08 09:51:15.128209+00:00,-0.3758,-0.9726,-0.1059
2026-07-08 09:51:15.128382+00:00,0.063,-0.5944,0.0005
2026-07-08 09:51:15.128968+00:00,-0.0356,-1.5553,0.2928
2026-07-08 09:51:15.129903+00:00,-0.0556,0.1283,-0.5397
2026-07-08 09:51:15.212585+00:00,0.283,-1.28,0.2172
2026-07-08 09:51:15.213455+00:00,-0.3475,-0.9858,0.0117
2026-07-08 09:51:15.214191+00:00,0.0878,-0.9589,0.0073
2026-07-08 09:51:15.214413+00:00,-0.1879,-1.5621,0.2972
2026-07-08 09:51:15.214770+00:00,0.0181,0.0844,-0.5592
2026-07-08 09:51:15.215196+00:00,0.3196,-1.2229,0.3933
2026-07-08 09:51:15.216219+00:00,-0.3914,-0.9287,-0.0337
2026-07-08 09:51:15.217596+00:00,0.2621,-0.9892,0.0239
2026-07-08 09:51:15.218203+00:00,-0.1845,-1.5801,0.3104
2026-07-08 09:51:15.218784+00:00,-0.0039,0.1362,-0.3714
2026-07-08 09:51:15.219236+00:00,0.3211,-1.7832,0.4187
2026-07-08 09:51:15.220052+00:00,-0.5236,-0.8979,-0.0527
2026-07-08 09:51:15.300523+00:00,0.2884,-1.0292,0.0459
2026-07-08 09:51:15.301102+00:00,-0.222,-1.527,0.0425
2026-07-08 09:51:15.301427+00:00,-0.1713,0.1508,-0.3489
2026-07-08 09:51:15.301697+00:00,0.3509,-1.8495,0.4704
2026-07-08 09:51:15.301916+00:00,-0.5505,-0.7598,-0.124
2026-07-08 09:51:15.302180+00:00,0.3401,-1.1283,0.1035
2026-07-08 09:51:15.302389+00:00,-0.2869,-1.4201,-0.0566
2026-07-08 09:51:15.302605+00:00,-0.203,-0.6324,-0.2396
2026-07-08 09:51:15.302928+00:00,0.0312,-1.9139,0.5056
2026-07-08 09:51:15.361612+00:00,-0.5178,-0.5168,-0.2708
2026-07-08 09:51:15.361911+00:00,0.3655,-1.3156,0.3157
2026-07-08 09:51:15.362220+00:00,-0.4285,-1.0214,0.062
2026-07-08 09:51:15.362575+00:00,0.1923,-0.9194,-0.0649
2026-07-08 09:51:15.362824+00:00,-0.1,-1.8607,0.4738
2026-07-08 09:51:15.363169+00:00,-0.4211,-0.1508,-0.6071
2026-07-08 09:51:15.410058+00:00,0.3353,-1.6699,0.3953
2026-07-08 09:51:15.410638+00:00,-0.3284,-0.8828,-0.0791
2026-07-08 09:51:15.410981+00:00,0.2172,-1.0712,0.0444
2026-07-08 09:51:15.411255+00:00,-0.182,-1.6382,0.123
2026-07-08 09:51:15.411507+00:00,-0.1796,0.1142,-0.4865
2026-07-08 09:51:15.471523+00:00,0.3475,-1.6948,0.4392
2026-07-08 09:51:15.471878+00:00,-0.3948,-0.6559,-0.2137
2026-07-08 09:51:15.472190+00:00,0.2884,-1.0414,0.0737
2026-07-08 09:51:15.472479+00:00,-0.3279,-1.2893,-0.0688
2026-07-08 09:51:15.472722+00:00,-0.245,-0.3894,-0.3299
2026-07-08 09:51:15.472956+00:00,0.0478,-1.7109,0.4329
2026-07-08 09:51:15.537329+00:00,-0.8023,-0.5519,-0.1532
2026-07-08 09:51:15.538130+00:00,0.2884,-1.2683,0.2884
2026-07-08 09:51:15.538395+00:00,-0.5241,-1.1292,0.0795
2026-07-08 09:51:15.538519+00:00,0.1059,-0.632,-0.1879
2026-07-08 09:51:15.538861+00:00,-0.0961,-1.7714,0.4231
2026-07-08 09:51:15.539330+00:00,-0.6647,-0.6022,-0.4856
2026-07-08 09:51:15.602814+00:00,0.2928,-1.5172,0.3343
2026-07-08 09:51:15.603436+00:00,-0.407,-1.097,0.0205
2026-07-08 09:51:15.603697+00:00,0.1313,-0.6676,-0.1606
2026-07-08 09:51:15.603969+00:00,-0.12,-1.7978,0.1635
2026-07-08 09:51:15.604253+00:00,-0.4641,-0.425,-0.3963
2026-07-08 09:51:15.604352+00:00,0.2811,-1.5006,0.324
2026-07-08 09:51:15.604440+00:00,-0.6915,-1.0941,0.021
2026-07-08 09:51:15.671703+00:00,0.1449,-0.6529,-0.161
2026-07-08 09:51:15.672247+00:00,-0.1415,-1.791,0.1835
2026-07-08 09:51:15.672588+00:00,-0.5636,-0.2816,-0.4094
2026-07-08 09:51:15.672991+00:00,0.3133,-1.4742,0.2996
2026-07-08 09:51:15.673285+00:00,-0.6129,-1.1678,0.0673
2026-07-08 09:51:15.673523+00:00,0.1205,-0.6608,0.1205
2026-07-08 09:51:15.728337+00:00,-0.1157,-1.4079,0.2284
2026-07-08 09:51:15.728924+00:00,-0.0732,-0.1274,-0.49
2026-07-08 09:51:15.729473+00:00,0.2899,-1.4142,0.2655
2026-07-08 09:51:15.730004+00:00,-0.4382,-1.0838,-0.0405
2026-07-08 09:51:15.730388+00:00,0.1074,-1.0834,0.0405
2026-07-08 09:51:15.730866+00:00,-0.0625,-1.4733,0.2582
2026-07-08 09:51:15.789278+00:00,-0.1362,0.0791,-0.5431
2026-07-08 09:51:15.789532+00:00,0.2957,-1.3083,0.2225
2026-07-08 09:51:15.789655+00:00,-0.3948,-1.0531,-0.0234
2026-07-08 09:51:15.789735+00:00,0.1152,-1.0024,0.0346
2026-07-08 09:51:15.789806+00:00,-0.2259,-1.5187,0.2728
2026-07-08 09:51:15.789980+00:00,-0.0542,0.1078,-0.5514
2026-07-08 09:51:15.790266+00:00,0.327,-1.2971,0.427
2026-07-08 09:51:15.851181+00:00,-0.427,-0.8316,-0.0834
2026-07-08 09:51:15.851913+00:00,0.3084,-1.0658,0.0634
2026-07-08 09:51:15.852216+00:00,-0.2386,-1.5035,0.2752
2026-07-08 09:51:15.852552+00:00,-0.1835,0.1196,-0.3382
2026-07-08 09:51:15.852885+00:00,0.3387,-1.8363,0.4607
2026-07-08 09:51:15.853092+00:00,-0.5949,-0.7696,-0.1161
2026-07-08 09:51:15.912929+00:00,0.3416,-1.1253,0.1035
2026-07-08 09:51:15.913278+00:00,-0.2913,-1.4201,-0.0678
2026-07-08 09:51:15.913572+00:00,-0.1976,0.0542,-0.2562
2026-07-08 09:51:15.913878+00:00,0.3684,-1.9037,0.4963
2026-07-08 09:51:15.914056+00:00,-0.5226,-0.5617,-0.2411
2026-07-08 09:51:15.914298+00:00,0.367,-1.2976,0.1718
2026-07-08 09:51:15.962475+00:00,-0.3548,-1.3044,0.0522
2026-07-08 09:51:15.962925+00:00,-0.1113,-0.8813,-0.0825
2026-07-08 09:51:15.963296+00:00,-0.0922,-1.8812,0.4856
2026-07-08 09:51:15.963603+00:00,-0.4431,-0.2176,-0.4377
2026-07-08 09:51:15.963838+00:00,0.3401,-1.4025,0.388
2026-07-08 09:51:15.971422+00:00,-0.3357,-0.9311,-0.0566
2026-07-08 09:51:16.051976+00:00,0.2015,-1.0624,0.0366
2026-07-08 09:51:16.052429+00:00,-0.1698,-1.6831,0.3875
2026-07-08 09:51:16.052652+00:00,-0.2147,0.103,-0.5119
2026-07-08 09:51:16.052866+00:00,0.3455,-1.7466,0.4446
2026-07-08 09:51:16.053207+00:00,-0.4143,-0.7125,-0.1713
2026-07-08 09:51:16.114852+00:00,0.266,-1.0516,0.0771
2026-07-08 09:51:16.115410+00:00,-0.3192,-1.3215,-0.0581
2026-07-08 09:51:16.115776+00:00,-0.2152,-0.082,-0.3333
2026-07-08 09:51:16.115973+00:00,0.3802,-1.729,0.4436
2026-07-08 09:51:16.116350+00:00,-0.795,-0.5319,-0.1688
2026-07-08 09:51:16.116721+00:00,0.2928,-1.2503,0.1771
2026-07-08 09:51:16.116954+00:00,-0.5305,-1.1063,0.059
2026-07-08 09:51:16.117287+00:00,-0.0288,-0.6583,-0.1752
2026-07-08 09:51:16.188337+00:00,-0.101,-1.7763,0.4241
2026-07-08 09:51:16.188850+00:00,-0.4875,-0.3782,-0.3616
2026-07-08 09:51:16.189360+00:00,0.307,-1.4279,0.3518
2026-07-08 09:51:16.189692+00:00,-0.2347,-0.9628,-0.0395
2026-07-08 09:51:16.189968+00:00,0.1586,-0.7076,-0.1181
2026-07-08 09:51:16.190245+00:00,-0.1401,-1.7666,0.4099
2026-07-08 09:51:16.190598+00:00,-0.205,0.0869,-0.3723
2026-07-08 09:51:16.235586+00:00,0.2904,-1.5187,0.3489
2026-07-08 09:51:16.236103+00:00,-0.6998,-0.8628,-0.0683
2026-07-08 09:51:16.236333+00:00,0.204,-0.6925,-0.1244
2026-07-08 09:51:16.236575+00:00,-0.1664,-1.7475,0.1449
2026-07-08 09:51:16.236780+00:00,-0.1781,-0.2782,-0.3348
2026-07-08 09:51:16.237184+00:00,0.2747,-1.4845,0.3216
2026-07-08 09:51:16.289297+00:00,-0.7222,-0.9438,-0.0342
2026-07-08 09:51:16.289731+00:00,0.2001,-0.6812,-0.1308
2026-07-08 09:51:16.290096+00:00,-0.161,-1.7612,0.123
2026-07-08 09:51:16.290369+00:00,-0.2298,-0.3777,-0.3396
2026-07-08 09:51:16.290627+00:00,0.3274,-1.4474,0.3055
2026-07-08 09:51:16.383906+00:00,-0.6539,-1.1161,0.0293
2026-07-08 09:51:16.384203+00:00,0.1576,-0.6998,0.1835
2026-07-08 09:51:16.384333+00:00,-0.1425,-1.3103,0.184
2026-07-08 09:51:16.384425+00:00,-0.1484,-0.1962,-0.4636
2026-07-08 09:51:16.384802+00:00,0.3065,-1.4318,0.2684
2026-07-08 09:51:16.385274+00:00,-0.5197,-1.1322,-0.0815
2026-07-08 09:51:16.385632+00:00,0.1357,-1.0404,0.0869
2026-07-08 09:51:16.447489+00:00,-0.2713,-1.4025,0.2264
2026-07-08 09:51:16.448017+00:00,-0.1752,0.0127,-0.5261
2026-07-08 09:51:16.448320+00:00,0.3143,-1.3771,0.4368
2026-07-08 09:51:16.448652+00:00,-0.4514,-1.0995,-0.083
2026-07-08 09:51:16.449057+00:00,0.1371,-1.0965,0.0737
2026-07-08 09:51:16.449290+00:00,-0.2513,-1.4538,0.2464
2026-07-08 09:51:16.449578+00:00,-0.1967,0.0712,-0.5485
2026-07-08 09:51:16.449972+00:00,0.3367,-1.3957,0.4524
2026-07-08 09:51:16.450416+00:00,-0.4802,-0.7393,-0.1298
2026-07-08 09:51:16.498708+00:00,0.3392,-1.1448,0.1005
2026-07-08 09:51:16.499102+00:00,-0.2821,-1.4211,0.2308
2026-07-08 09:51:16.499269+00:00,-0.185,0.0449,-0.2733
2026-07-08 09:51:16.499356+00:00,0.3455,-1.8808,0.4826
2026-07-08 09:51:16.499719+00:00,-0.5114,-0.6295,-0.1986
2026-07-08 09:51:16.587492+00:00,0.3655,-1.2498,0.1469
2026-07-08 09:51:16.588611+00:00,-0.3323,-1.3278,-0.0049
2026-07-08 09:51:16.588833+00:00,-0.1449,-0.8003,-0.142
2026-07-08 09:51:16.588962+00:00,-0.019,-1.8964,0.4914
2026-07-08 09:51:16.589246+00:00,-0.4802,-0.3772,-0.3455
2026-07-08 09:51:16.589386+00:00,0.3533,-1.3688,0.346
2026-07-08 09:51:16.589705+00:00,-0.4904,-1.2751,0.0039
2026-07-08 09:51:16.589966+00:00,-0.041,-1.0004,-0.0063
2026-07-08 09:51:16.590278+00:00,-0.1249,-1.7934,0.4421
2026-07-08 09:51:16.637288+00:00,-0.3406,-0.0234,-0.5505
2026-07-08 09:51:16.637836+00:00,0.3294,-1.4416,0.4104
2026-07-08 09:51:16.638193+00:00,-0.305,-0.8037,-0.0781
2026-07-08 09:51:16.638562+00:00,0.2499,-1.0726,0.0664
2026-07-08 09:51:16.638844+00:00,-0.2347,-1.523,0.3192
2026-07-08 09:51:16.694713+00:00,-0.1381,0.0996,-0.429
2026-07-08 09:51:16.695088+00:00,0.3738,-1.7192,0.4509
2026-07-08 09:51:16.695719+00:00,-0.3826,-0.3894,-0.285
2026-07-08 09:51:16.696154+00:00,0.3089,-1.1278,0.1015
2026-07-08 09:51:16.696762+00:00,-0.364,-1.1766,0.0117
2026-07-08 09:51:16.697081+00:00,-0.2123,-0.5783,-0.2616
2026-07-08 09:51:16.759197+00:00,-0.0054,-1.748,0.427
2026-07-08 09:51:16.759777+00:00,-0.8032,-0.6632,-0.1874
2026-07-08 09:51:16.760120+00:00,0.2816,-1.3283,0.3372
2026-07-08 09:51:16.760369+00:00,-0.4709,-1.138,0.0317
2026-07-08 09:51:16.760727+00:00,0.0556,-0.6822,-0.161
2026-07-08 09:51:16.760945+00:00,-0.1093,-1.8017,0.428
2026-07-08 09:51:16.828483+00:00,-0.3953,-0.3157,-0.3919
2026-07-08 09:51:16.828820+00:00,0.2948,-1.4689,0.3416
2026-07-08 09:51:16.829353+00:00,-0.3235,-0.9999,-0.0239
2026-07-08 09:51:16.829863+00:00,0.164,-0.6793,-0.1332
2026-07-08 09:51:16.830355+00:00,-0.141,-1.7792,0.406
2026-07-08 09:51:16.830510+00:00,-0.2445,-0.1279,-0.3601
2026-07-08 09:51:16.830859+00:00,0.283,-1.4996,0.3279
2026-07-08 09:51:16.892173+00:00,-0.7242,-1.0175,-0.0132
2026-07-08 09:51:16.892749+00:00,0.1708,-0.6617,-0.141
2026-07-08 09:51:16.892930+00:00,-0.1474,-1.7788,0.1435
2026-07-08 09:51:16.893083+00:00,-0.324,-0.3055,-0.3587
2026-07-08 09:51:16.893358+00:00,0.2669,-1.4684,0.305
2026-07-08 09:51:16.893915+00:00,-0.6603,-1.1302,0.0376
2026-07-08 09:51:16.894071+00:00,0.1474,-0.6681,0.2259
2026-07-08 09:51:16.949548+00:00,-0.1391,-1.77,0.1942
2026-07-08 09:51:16.950175+00:00,-0.6393,-0.2045,-0.4543
2026-07-08 09:51:16.950496+00:00,0.2962,-1.4357,0.2743
2026-07-08 09:51:16.950737+00:00,-0.509,-1.139,0.0722
2026-07-08 09:51:16.951061+00:00,0.1264,-0.7359,0.0722
2026-07-08 09:51:16.951318+00:00,-0.082,-1.4342,0.2406
2026-07-08 09:51:17.027381+00:00,-0.1405,0.0278,-0.5305
2026-07-08 09:51:17.027692+00:00,0.2952,-1.3459,0.2318
2026-07-08 09:51:17.028014+00:00,-0.4211,-1.0702,-0.0361
2026-07-08 09:51:17.028285+00:00,0.122,-1.0302,0.042
2026-07-08 09:51:17.028782+00:00,-0.2347,-1.486,0.263
2026-07-08 09:51:17.028928+00:00,-0.1166,0.1,-0.5436
2026-07-08 09:51:17.029019+00:00,0.3294,-1.3191,0.4314
2026-07-08 09:51:17.108314+00:00,-0.447,-0.8457,-0.0952
2026-07-08 09:51:17.108899+00:00,0.2542,-1.0756,0.0703
2026-07-08 09:51:17.109439+00:00,-0.2508,-1.483,0.2664
2026-07-08 09:51:17.109834+00:00,-0.1986,0.0898,-0.5622
2026-07-08 09:51:17.110254+00:00,0.3392,-1.4015,0.4621
2026-07-08 09:51:17.191019+00:00,-0.4782,-0.754,-0.124
2026-07-08 09:51:17.191584+00:00,0.3465,-1.1302,0.1039
2026-07-08 09:51:17.191974+00:00,-0.2908,-1.4069,0.2255
2026-07-08 09:51:17.192254+00:00,-0.1898,0.04,-0.242
2026-07-08 09:51:17.192533+00:00,0.3645,-1.9052,0.4968
2026-07-08 09:51:17.192738+00:00,-0.5168,-0.5607,-0.2401
2026-07-08 09:51:17.193014+00:00,0.368,-1.2898,0.1659
2026-07-08 09:51:17.193347+00:00,-0.346,-1.3025,0.0488
2026-07-08 09:51:17.193704+00:00,-0.1142,-0.8725,-0.0888
2026-07-08 09:51:17.237743+00:00,-0.0874,-1.8866,0.487
2026-07-08 09:51:17.238146+00:00,-0.4441,-0.2367,-0.4285
2026-07-08 09:51:17.238309+00:00,0.3406,-1.3923,0.3816
2026-07-08 09:51:17.238585+00:00,-0.3958,-0.957,-0.0522
2026-07-08 09:51:17.238802+00:00,0.2347,-1.0477,0.0283
2026-07-08 09:51:17.239156+00:00,-0.1571,-1.7095,0.4006
2026-07-08 09:51:17.239716+00:00,-0.2381,0.0761,-0.5924
2026-07-08 09:51:17.295625+00:00,0.3382,-1.4869,0.4348
2026-07-08 09:51:17.296770+00:00,-0.4509,-0.7076,-0.1405
2026-07-08 09:51:17.297261+00:00,0.2635,-1.0487,0.0771
2026-07-08 09:51:17.297577+00:00,-0.2967,-1.3713,0.2367
2026-07-08 09:51:17.297844+00:00,-0.1869,0.0332,-0.3489
2026-07-08 09:51:17.298105+00:00,0.3894,-1.7392,0.448
2026-07-08 09:51:17.349280+00:00,-0.6598,-0.3924,-0.2211
2026-07-08 09:51:17.349802+00:00,0.304,-1.198,0.1503
2026-07-08 09:51:17.350296+00:00,-0.5134,-1.0975,0.0747
2026-07-08 09:51:17.350702+00:00,-0.0625,-0.6266,-0.1937
